Folder: code/_archive/xrd_analysis/notebooks/mask-and-integrate/maria-June2018

Note: _archive/xrd_analysis/notebooks/mask-and-integrate/maria-June2018/LaB6_XRD_4de88d.yaml
analysis_stage: raw
beamline_config:
  Filters: [1Cu, 2Cu, 3Cu, 4Cu]
  Verification time: '2018-06-16 16:29:29'
  Verified by: rw
  beamstop: W
beamline_id: 28-id-2
bt_experimenters: [Randy, Weidner, Maria, Okuniewski, Jonova, Thomas, Gyuchul, Park]
bt_piLast: Ecker
bt_safN: '302524'
bt_uid: bb8ede01
bt_wavelength: 0.1902
calibration_md:
  calibrant_name: undefined
  centerX: 1740.4801161354526
  centerY: 996.7438744483815
  dSpacing:
  - !!python/object/apply:numpy.core.multiarray.scalar
    - &id001 !!python/object/apply:numpy.dtype
      args: [f8, 0, 1]
      state: !!python/tuple [3, <, null, null, null, -1, -1, 0]
    - !!binary |
      8rtCHNNGAEA=
  - !!python/object/apply:numpy.core.multiarray.scalar
    - *id001
    - !!binary |
      G9gqweIw/D8=
  - !!python/object/apply:numpy.core.multiarray.scalar
    - *id001
    - !!binary |
      5EYPEEzv8z8=
  - !!python/object/apply:numpy.core.multiarray.scalar
    - *id001
    - !!binary |
      zH5+PRsA8T8=
  - !!python/object/apply:numpy.core.multiarray.scalar
    - *id001
    - !!binary |
      8rtCHNNG8D8=
  - !!python/object/apply:numpy.core.multiarray.scalar
    - *id001
    - !!binary |
      /tR46SYx7D8=
  - !!python/object/apply:numpy.core.multiarray.scalar
    - *id001
    - !!binary |
      0xsrs+ne6T8=
  - !!python/object/apply:numpy.core.multiarray.scalar
    - *id001
    - !!binary |
      yXmujDc36T8=
  - !!python/object/apply:numpy.core.multiarray.scalar
    - *id001
    - !!binary |
      8S6gqccE5z8=
  - !!python/object/apply:numpy.core.multiarray.scalar
    - *id001
    - !!binary |
      136uJcSz5T8=
  - !!python/object/apply:numpy.core.multiarray.scalar
    - *id001
    - !!binary |
      5EYPEEzv4z8=
  - !!python/object/apply:numpy.core.multiarray.scalar
    - *id001
    - !!binary |
      VNvKdK8P4z8=
  - !!python/object/apply:numpy.core.multiarray.scalar
    - *id001
    - !!binary |
      RIJQRm/L4j8=
  - !!python/object/apply:numpy.core.multiarray.scalar
    - *id001
    - !!binary |
      3+/dF4fU4T8=
  - !!python/object/apply:numpy.core.multiarray.scalar
    - *id001
    - !!binary |
      Vpn742sy4T8=
  - !!python/object/apply:numpy.core.multiarray.scalar
    - *id001
    - !!binary |
      +6F+PRsA4T8=
  - !!python/object/apply:numpy.core.multiarray.scalar
    - *id001
    - !!binary |
      Id9CHNNG4D8=
  - !!python/object/apply:numpy.core.multiarray.scalar
    - *id001
    - !!binary |
      sSJWztOU3z8=
  - !!python/object/apply:numpy.core.multiarray.scalar
    - *id001
    - !!binary |
      0z02FbZG3z8=
  - !!python/object/apply:numpy.core.multiarray.scalar
    - *id001
    - !!binary |
      3L1JxHUj3j8=
  - !!python/object/apply:numpy.core.multiarray.scalar
    - *id001
    - !!binary |
      BoRIyr5c3T8=
  - !!python/object/apply:numpy.core.multiarray.scalar
    - *id001
    - !!binary |
      /tR46SYx3D8=
  - !!python/object/apply:numpy.core.multiarray.scalar
    - *id001
    - !!binary |
      IvutPbmN2z8=
  - !!python/object/apply:numpy.core.multiarray.

File: LaB6_XRD_20180617-053024_dx_47.462mm_dy_-7.901mm_4de88d_0015.xy
# 2Theta    Intensity
4.8253e-03  0.0000e+00
6.2910e-02  1.3714e+00
1.2340e-01  1.2833e+00
1.8391e-01  9.8914e-01
2.4442e-01  1.8017e+00
3.0494e-01  3.7104e+00
3.6547e-01  5.2291e+00
4.2599e-01  7.1882e+00
4.8651e-01  8.0680e+00
5.4703e-01  9.1599e+00
6.0754e-01  8.8678e+00
6.6806e-01  9.2256e+00
7.2858e-01  1.0231e+01
7.8909e-01  1.0520e+01
8.4961e-01  1.1463e+01
9.1012e-01  1.2893e+01
9.7063e-01  1.4325e+01
1.0311e+00  1.4664e+01
1.0916e+00  1.5091e+01
1.1521e+00  1.6270e+01
1.2126e+00  1.6419e+01
1.2731e+00  1.7018e+01
1.3336e+00  1.7981e+01
1.3941e+00  1.7646e+01
1.4546e+00  1.8034e+01
1.5151e+00  1.8083e+01
1.5756e+00  1.7274e+01
1.6361e+00  1.7449e+01
1.6966e+00  1.7576e+01
1.7570e+00  1.7719e+01
1.8175e+00  1.7821e+01
1.8780e+00  1.7583e+01
1.9384e+00  1.7391e+01
1.9989e+00  1.7690e+01
2.0593e+00  1.7070e+01
2.1198e+00  1.7161e+01
2.1802e+00  1.6753e+01
2.2407e+00  1.6432e+01
2.3011e+00  1.6402e+01
2.3615e+00  1.6186e+01
2.4220e+00  1.5734e+01
2.4824e+00  1.6129e+01
2.5428e+00  1.6257e+01
2.6032e+00  3.9633e+01
2.6636e+00  1.7142e+01
2.7240e+00  1.5610e+01
2.7844e+00  1.5479e+01
2.8448e+00  1.4603e+01
2.9052e+00  1.4092e+01
2.9655e+00  1.3817e+01
3.0259e+00  1.3740e+01
3.0862e+00  1.3568e+01
3.1466e+00  1.3628e+01
3.2070e+00  1.3863e+01
3.2673e+00  1.4057e+01
3.3276e+00  1.2690e+01
3.3879e+00  1.2065e+01
3.4483e+00  1.1732e+01
3.5086e+00  1.1780e+01
3.5689e+00  1.1051e+01
3.6292e+00  1.1175e+01
3.6895e+00  6.1914e+01
3.7497e+00  1.3236e+01
3.8100e+00  1.0091e+01
3.8703e+00  9.7055e+00
3.9305e+00  9.5669e+00
3.9908e+00  9.0423e+00
4.0510e+00  1.0791e+01
4.1112e+00  1.0182e+01
4.1715e+00  8.8896e+00
4.2317e+00  8.4506e+00
4.2919e+00  8.3936e+00
4.3521e+00  8.2192e+00
4.4122e+00  8.3104e+00
4.4724e+00  8.0386e+00
4.5326e+00  6.4013e+01
4.5927e+00  8.6593e+00
4.6529e+00  7.9406e+00
4.7130e+00  7.6692e+00
4.7731e+00  7.4518e+00
4.8332e+00  7.5071e+00
4.8933e+00  7.6027e+00
4.9534e+00  7.7517e+00
5.0135e+00  7.4598e+00
5.0736e+00  7.0809e+00
5.1336e+00  7.5235e+00
5.1937e+00  7.4887e+00
5.2537e+00  3.5947e+01
5.3137e+00  7.0703e+00
5.3738e+00  7.3592e+00
5.4338e+00  7.2828e+00
5.4938e+00  7.0491e+00
5.5537e+00  7.3136e+00
5.6137e+00  7.4105e+00
5.6736e+00  7.1775e+00
5.7336e+00  7.6280e+00
5.7935e+00  7.1741e+00
5.8534e+00  7.2457e+01
5.9133e+00  7.7580e+00
5.9732e+00  6.8041e+00
6.0331e+00  6.4351e+00
6.0930e+00  6.7514e+00
6.1528e+00  7.1080e+00
6.2127e+00  6.8803e+00
6.2725e+00  6.6372e+00
6.3323e+00  6.5947e+00
6.3921e+00  9.1571e+00
6.4519e+00  1.1739e+01
6.5116e+00  6.8135e+00
6.5714e+00  6.2504e+00
6.6311e+00  6.1539e+00
6.6909e+00  6.2906e+00
6.7506e+00  6.1333e+00
6.8103e+00  6.1815e+00
6.8700e+00  6.0914e+00
6.9296e+00  6.4849e+00
6.9893e+00  6.2517e+00
7.0489e+00  7.2011e+00
7.1085e+00  6.2342e+00
7.1682e+00  6.2182e+00
7.2277e+00  6.2562e+00
7.2873e+00  6.1844e+00
7.3469e+00  6.1225e+00
7.4064e+00  1.8207e+01
7.4660e+00  6.4575e+00
7.5255e+00  6.2222e+00
7.5850e+00  6.4404e+00
7.6445e+00  6.4225e+00
7.7039e+00  6.3357e+00
7.7634e+00  6.6186e+00
7.8228e+00  7.2449e+00
7.8822e+00  4.4538e+01
7.9416e+00  6.3787e+00
8.0010e+00  6.1923e+00
8.0604e+00  6.2485e+00
8.1197e+00  6.3168e+00
8.1790e+00  6.2166e+00
8.2383e+00  6.4301e+00
8.2976e+00  4.4860e+01
8.3569e+00  6.3595e+00
8.4162e+00  6.0240e+00
8.4754e+00  6.0537e+00
8.5346e+00  5.9657e+00
8.5938e+00  6.0077e+00
8.6530e+00  6.4490e+00
8.7122e+00  2.2907e+01
8.7713e+00  6.2041e+00
8.8305e+00  5.9402e+00
8.8896e+00  6.1708e+00
8.9487e+00  6.1907e+00
9.0077e+00  6.1857e+00
9.0668e+00  6.9826e+00
9.1258e+00  6.2535e+00
9.1848e+00  6.0241e+00
9.2438e+00  5.8841e+00
9.3028e+00  5.9319e+00
9.3618e+00  5.8291e+00
9.4207e+00  6.3275e+00
9.4796e+00  1.3421e+01
9.5385e+00  6.0656e+00
9.5974e+00  5.5283e+00
9.6563e+00  5.5467e+00
9.7151e+00  5.7783e+00
9.7739e+00  6.2664e+00
9.8327e+00  3.0328e+01
9.8915e+00  5.7728e+00
9.9502e+00  5.8161e+00
1.0009e+01  5.9577e+00
1.0068e+01  5.6241e+00
1.0126e+01  5.3710e+00
1.0185e+01  5.5169e+00
1.0244e+01  5.3816e+00
1.0302e+01  5.3528e+00
1.0361e+01  5.5561e+00
1.0419e+01  5.4248e+00
1.0478e+01  6.7862e+00
1.0537e+01  6.0166e+00
1.0595e+01  5.4590e+00
1.0654e+01  5.2788e+00
1.0712e+01  5.3080e+00
1.0771e+01  6.0421e+00
1.0829e+01  2.6806e+01
1.0887e+01  5.4727e+00
1.0946e+01  5.3723e+00
1.1004e+01  5.3841e+00
1.1062e+01  5.3936e+00
1.1121e+01  1.4385e+01
1.1179e+01  6.0415e+00
1.1237e+01  5.2876e+00
1.1296e+01  5.0021e+00
1.1354e+01  5.4842e+00
1.1412e+01  5.8792e+00
1.1470e+01  7.4856e+00
1.1528e+01  5.4461e+00
1.1586e+01  5.5570e+00
1.1645e+01  5.3107e+00
1.1703e+01  5.6966e+00
1.1761e+01  1.0821e+01
1.1819e+01  5.2609e+00
1.1877e+01  5.3861e+00
1.1935e+01  5.3494e+00
1.1993e+01  5.8775e+00
1.2051e+01  1.7298e+01
1.2108e+01  5.3616e+00
1.2166e+01  5.1374e+00
1.2224e+01  5.4629e+00
1.2282e+01  5.6109e+00
1.2340e+01  8.8812e+00
1.2398e+01  5.1957e+00
1.2455e+01  5.2361e+00
1.2513e+01  5.3624e+00
1.2571e+01  5.0713e+00
1.2628e+01  5.1655e+00
1.2686e+01  4.9628e+00
1.2744e+01  5.0275e+00
1.2801e+01  5.0251e+00
1.2859e+01  7.7494e+00
1.2916e+01  5.1139e+00
1.2974e+01  5.0329e+00
1.3031e+01  5.0515e+00
1.3089e+01  5.1285e+00
1.3146e+01  8.2526e+00
1.3203e+01  5.1203e+00
1.3261e+01  5.2681e+00
1.3318e+01  5.0116e+00
1.3375e+01  1.0960e+01
1.3432e+01  6.9173e+00
1.3490e+01  5.0753e+00
1.3547e+01  4.9693e+00
1.3604e+01  5.0619e+00
1.3661e+01  1.0302e+01
1.3718e+01  5.2033e+00
1.3775e+01  5.0489e+00
1.3831e+01  4.8822e+00
1.3888e+01  4.8211e+00
1.3945e+01  4.9082e+00
1.4002e+01  5.0108e+00
1.4058e+01  5.0209e+00
1.4115e+01  5.9378e+00
1.4172e+01  1.1975e+01
1.4228e+01  4.9411e+00
1.4285e+01  4.8779e+00
1.4341e+01  5.0285e+00
1.4397e+01  8.4530e+00
1.4454e+01  5.1413e+00
1.4510e+01  4.9654e+00
1.4566e+01  4.8467e+00
1.4622e+01  5.1062e+00
1.4679e+01  4.9946e+00
1.4735e+01  4.8691e+00
1.4791e+01  4.7297e+00
1.4847e+01  5.0297e+00
1.4902e+01  5.4895e+00
1.4958e+01  4.5831e+00
1.5014e+01  4.7500e+00
1.5070e+01  6.2269e+00
1.5126e+01  8.2445e+00
1.5181e+01  5.2606e+00
1.5237e+01  5.0312e+00
1.5292e+01  5.2737e+00
1.5348e+01  9.5363e+00
1.5403e+01  5.0592e+00
1.5458e+01  4.8051e+00
1.5514e+01  5.2229e+00
1.5569e+01  8.0068e+00
1.5624e+01  4.6612e+00
1.5679e+01  4.9197e+00
1.5734e+01  4.3924e+00
1.5789e+01  6.3276e+00
1.5844e+01  4.8210e+00
1.5899e+01  4.2897e+00
1.5954e+01  4.8397e+00
1.6009e+01  6.3351e+00
1.6063e+01  4.8003e+00
1.6118e+01  4.8067e+00
1.6173e+01  4.6456e+00
1.6227e+01  8.3261e+00
1.6282e+01  4.7585e+00
1.6336e+01  4.4975e+00
1.6390e+01  4.6574e+00
1.6445e+01  4.7171e+00
1.6499e+01  4.2540e+00
1.6553e+01  4.8271e+00
1.6607e+01  4.4078e+00
1.6661e+01  6.3854e+00
1.6715e+01  0.0000e+00
1.6769e+01  0.0000e+00
1.6823e+01  0.0000e+00
1.6868e+01  0.0000e+00