Folder: code/_jupyter-notebooks/calc_feff/v3/Ni-foil_manual

File: Ni-RT.nor
# XDI/1.0 Demeter/0.9.26
# Demeter.output_filetype: multicolumn normalized mu(E)
# Element.symbol: Ni
# Element.edge: K
# Column.1: energy eV
# Column.2: Ni-foil.dat
# Column.3: A2-Ni-RT.dat
# Column.4: A4-Ni-RT.dat
# Column.5: A6-Ni-RT.dat
# Column.6: A7-Ni-RT.dat
# Column.7: B4-Ni-RT.dat
# Column.8: C3-Ni-RT.dat
#------------------------
#  energy  Ni-foil.dat  A2-Ni-RT.dat  A4-Ni-RT.dat  A6-Ni-RT.dat  A7-Ni-RT.dat  B4-Ni-RT.dat  C3-Ni-RT.dat
  8138.9       0.141047       0.0740441   0.0213911   0.135932       0.0846692   0.080081   0.00983559
  8166.9       0.0744799   0.0453596   0.0135138   0.0844022   0.0371678   0.050985   0.0070441
  8194.9       0.0487745   0.0531749   0.0129763   0.0865033   0.0313107   0.056277   0.00449196
  8222.9       0.0158949   0.00821354   0.00289231   0.0104245   0.00294841   0.00586617   0.00197999
  8250.9       0.00235457   0.0143025   0.000675775   0.0163025   0.00488005   0.0145685   0.000125826
  8278.9      -0.00307567  -0.00328404  -0.000389422  -0.00614564  -0.00172069  -0.0034438  -0.000571733
  8312.2       0.0206026   0.0097425   0.00371905   0.0125017   0.0114386   0.00953251   0.00668343
  8313.6       0.0194577   0.00802466   0.00294141   0.0111716   0.012909   0.007353   0.00766833
  8315       0.0151936   0.00827979   0.00432252   0.0189058   0.0137923   0.0048893   0.00887089
  8316.4       0.020911   0.0124808   0.00474419   0.00851135   0.0180024   0.00583597   0.0103594
  8317.8       0.020078   0.0134758   0.00674894   0.0166232   0.0184551   0.00877203   0.0119644
  8319.2       0.0254836   0.0102783   0.00721858   0.0239798   0.0243483   0.0117081   0.0139027
  8320.6       0.0315129   0.0120131   0.00811997   0.0264264   0.0309851   0.0154967   0.0162538
  8322       0.0334873   0.0164608   0.00897339   0.0269847   0.0380915   0.0212748   0.0191856
  8323.4       0.0410763   0.0184422   0.0117937   0.0350966   0.0470375   0.0253476   0.0228701
  8324.8       0.0555276   0.0270824   0.014566   0.057938   0.0578622   0.0382306   0.0278075
  8326.2       0.0927495   0.0441077   0.0216078   0.0875777   0.0902527   0.0610604   0.0355874
  8327.6       0.211072       0.110704       0.0417461   0.210882       0.19012       0.146982       0.0556707
  8329       0.39756       0.198082       0.0694817   0.367129       0.368428       0.263571       0.0744834
  8330.4       0.519883       0.247635       0.0776625   0.469375       0.484143       0.328073       0.0706767
  8331.8       0.565463       0.277446       0.0929408   0.524013       0.545249       0.368972       0.0921714
  8333.2       0.596997       0.311191       0.118627       0.562013       0.579926       0.405309       0.135152
  8334.6       0.650667       0.372051       0.174005       0.60868       0.623519       0.44902       0.229385
  8336       0.690291       0.498006       0.353869       0.659104       0.671642       0.528809       0.512073
  8337.4       0.732088       0.665874       0.712139       0.711774       0.719757       0.619666       0.926822
  8338.8       0.790096       0.806601       0.967555       0.769334       0.769819       0.711361       0.99195
  8340.2       0.857139       0.939177        1.17562       0.822342       0.833962       0.79622        1.0186
  8341.6       0.923236        1.02266        1.17351       0.9029       0.903576       0.877085        1.01739
  8343       0.970609        1.09528        1.16906       0.967954       0.955568       0.943725        1.0169
  8344.4       0.989274        1.12128        1.27383       0.951786       0.977804       0.957205        1.02363
  8345.8       0.994516        1.0538        1.20892       0.947307       0.979679       0.935998        1.02033
  8347.2       0.988207       0.996908        1.06399       0.941297       0.971369       0.910797        1.00257
  8348.6       0.978457       0.962693       0.983775       0.9364       0.968138       0.89837       0.983049
  8350       0.983358       0.957814       0.959828       0.953011       0.975465       0.895022       0.978303
  8351.4       0.99979       0.965992       0.968979       0.962049       0.990611       0.903595       0.982875
  8352.8        1.00654       0.974158       0.977648       0.977487       0.998703       0.909027       0.984556
  8354.2        1.0164       0.975899       0.990153       0.975909        1.00052       0.912738       0.990494
  8355.6        1.01471       0.977135        1.00054       0.96978       0.99529       0.911888       0.992819
  8357        1.00397       0.980824        1.00935       0.966274       0.988873       0.904485       0.994342
  8358.4        1.00288       0.974635        1.00885       0.959727       0.980489       0.904457       0.995704
  8359.8       0.993366       0.966954       0.994812       0.94825       0.976794       0.899298       0.992649
  8361.2       0.984463       0.957534       0.98207       0.948461       0.987962       0.89384       0.988551
  8362.6       0.981788       0.953281       0.973644       0.939588       0.983857       0.890071       0.988389
  8368.4       0.981116       0.954374       0.943561       0.961104       0.97089       0.909499       0.976721
  8375.1        1.03112       0.992008       0.891652        1.05949        1.02223       0.982813       0.980223
  8382.5        1.02522       0.970659       0.967955        1.00366        1.09707       0.958439       0.984387
  8390.5       0.985093        1.00135        1.07617       0.97788       0.968525       0.967299        1.00987
  8399.1       0.983358        1.00952        1.06613       0.980119       0.965306       0.958981        1.00944
  8408.3       0.996849        1.01305        1.04057       0.990579       0.979312       0.962636        1.00497
  8418.1        1.01488       0.996323       0.946417        1.02382        1.0179       0.984673       0.981021
  8428.5        1.03704       0.979678       0.924055        1.0385        1.02777       0.995968       0.974478
  8439.5       0.996496       0.983714        1.0141        1.00497       0.987292       0.991831        1.0006
  8451       0.948631       0.96262        1.03725       0.938686       0.943182       0.956834        1.00616
  8463.2       0.960472       0.98643        1.02421       0.956107       0.965327       0.972144        1.00431
  8476       0.978532       0.993034        1.00447       0.966357       0.980726       0.980833       0.999735
  8489.4        1.03077        1.01434       0.990027        1.02339        1.02364        1.00914       0.99966
  8503.3        1.03159        1.00356       0.99168        1.01546        1.0136        1.00394       0.998081
  8517.9       0.945001       0.96701       0.988835       0.944514       0.951962       0.961418       0.998604
  8533       0.98611        1.00632        1.02601        1.00262       0.995268        1.00012        1.00446
  8548.8       0.995366        1.00519        1.02044        1.00129       0.995321        1.00476        1.00353
  8565.2        1.00164        1.01028       0.996365        1.02696        1.0133        1.00992       0.999351
  8582.1        1.02009        1.00637       0.992161        1.02187        1.02509        1.01297       0.998286
  8599.7       0.980956       0.984114       0.997231       0.981691       0.985752       0.990911        1.00001
  8617.8       0.990515       0.99416        1.00406       0.98758       0.984177        1.00268        1.00117
  8636.6        1.00234        1.00367        1.00391        1.00188        1.00357        1.01239        1.00049
  8655.9        1.01419        1.00957        1.0005        1.00911        1.02169        1.01594       0.999599
  8675.8        1.01742        1.0027       0.997397        1.00215        1.00558        1.0086       0.99945
  8696.4        1.00271       0.996568       0.991592        1.00399        1.00131       0.999496       0.999819
  8717.5       0.985323       0.995538       0.99415       0.98337       0.992945       0.988845        1.00071
  8751.9        1.00737       0.995981        1.00409       0.996979       0.992967       0.985612       0.998387
  8774.6        1.00719       0.996273       0.99909       0.997799       0.999013       0.986341       0.998881
  8797.9       0.996983       0.9937       0.995565       0.992802        1.0164       0.985595        1.00003
  8821.7       0.993843        1.0025       0.998557       0.999875        1.00815       0.991653        1.00233
  8846.2       0.99507        1.00482       0.999651        1.00615       0.984244        1.0032       0.998417
  8871.3       0.99996       0.998582        1.00009        1.0053       0.991039        1.00204        1.00002
  8896.9        1.00224        1.01651        1.00099        1.02923        1.00175        1.03145        1.00144
  8923.2       0.98789       0.996466        1.00092       0.988587       0.999274        1.0087        1.02798
  8950       0.991069       0.999775        1.00077        1.00204       0.982299        1.00673        1.05502
  8977.5       0.988957        1.00984        1.00565        1.03149        1.02172        1.0132        1.08278
  9005.5       0.97521        1.00124        1.00832        1.0174        1.00316       0.988032        1.11103
  9021.8       0.973084        1.00998        1.01103        1.02813        1.01456       0.988514        1.12748