Folder: code/_archive/xrd_analysis/notebooks/mask-and-integrate

File: combined.xy
# 2Theta    Intensity
4.3096e-03  6.2467e+00
5.9565e-02  5.7347e+00
1.1654e-01  6.1063e+00
1.7352e-01  9.9720e+00
2.3049e-01  1.4762e+01
2.8747e-01  1.9161e+01
3.4445e-01  2.2395e+01
4.0142e-01  2.5077e+01
4.5840e-01  2.7201e+01
5.1537e-01  2.9616e+01
5.7235e-01  3.0338e+01
6.2933e-01  3.3769e+01
6.8630e-01  4.2057e+01
7.4327e-01  4.5188e+01
8.0025e-01  5.1064e+01
8.5722e-01  5.5815e+01
9.1419e-01  6.0476e+01
9.7116e-01  6.4425e+01
1.0281e+00  6.3838e+01
1.0851e+00  6.2861e+01
1.1421e+00  6.1740e+01
1.1990e+00  6.1265e+01
1.2560e+00  6.1478e+01
1.3130e+00  6.3063e+01
1.3699e+00  6.3542e+01
1.4269e+00  6.1916e+01
1.4838e+00  6.1252e+01
1.5408e+00  6.0231e+01
1.5977e+00  5.9769e+01
1.6547e+00  6.0170e+01
1.7116e+00  6.0639e+01
1.7686e+00  6.0918e+01
1.8255e+00  6.0550e+01
1.8825e+00  5.9729e+01
1.9394e+00  5.9775e+01
1.9963e+00  5.9885e+01
2.0532e+00  5.8830e+01
2.1102e+00  5.8190e+01
2.1671e+00  5.7666e+01
2.2240e+00  5.7198e+01
2.2809e+00  5.8378e+01
2.3378e+00  5.6146e+01
2.3947e+00  5.5333e+01
2.4516e+00  5.4959e+01
2.5085e+00  5.4965e+01
2.5654e+00  8.3790e+01
2.6223e+00  5.8448e+01
2.6792e+00  5.3258e+01
2.7361e+00  5.3228e+01
2.7930e+00  5.0500e+01
2.8498e+00  5.1465e+01
2.9067e+00  4.7890e+01
2.9636e+00  4.7452e+01
3.0204e+00  4.6789e+01
3.0773e+00  4.8052e+01
3.1341e+00  4.6695e+01
3.1910e+00  4.7701e+01
3.2478e+00  4.5846e+01
3.3046e+00  4.4144e+01
3.3615e+00  4.2919e+01
3.4183e+00  4.2408e+01
3.4751e+00  4.2051e+01
3.5319e+00  4.1290e+01
3.5887e+00  4.1453e+01
3.6455e+00  4.0395e+02
3.7023e+00  4.4788e+01
3.7590e+00  3.8279e+01
3.8158e+00  3.6675e+01
3.8726e+00  3.7462e+01
3.9293e+00  3.5630e+01
3.9861e+00  3.8112e+01
4.0428e+00  3.7462e+01
4.0996e+00  3.5997e+01
4.1563e+00  3.3525e+01
4.2130e+00  3.5078e+01
4.2697e+00  3.3025e+01
4.3264e+00  3.6238e+01
4.3831e+00  3.3120e+01
4.4398e+00  3.6055e+01
4.4965e+00  1.5154e+02
4.5532e+00  3.3249e+01
4.6099e+00  3.2054e+01
4.6665e+00  3.1512e+01
4.7232e+00  3.1109e+01
4.7798e+00  3.0717e+01
4.8364e+00  3.1220e+01
4.8931e+00  3.2896e+01
4.9497e+00  3.1184e+01
5.0063e+00  3.0745e+01
5.0629e+00  3.0917e+01
5.1195e+00  3.1303e+01
5.1760e+00  3.5445e+02
5.2326e+00  3.1022e+01
5.2892e+00  3.0718e+01
5.3457e+00  3.1579e+01
5.4023e+00  3.0065e+01
5.4588e+00  3.0199e+01
5.5153e+00  3.0970e+01
5.5718e+00  3.0864e+01
5.6283e+00  3.0848e+01
5.6848e+00  3.3567e+01
5.7413e+00  3.3464e+01
5.7978e+00  3.7442e+02
5.8542e+00  3.0911e+01
5.9107e+00  2.9447e+01
5.9671e+00  2.9022e+01
6.0235e+00  2.9090e+01
6.0799e+00  3.0070e+01
6.1363e+00  2.9269e+01
6.1927e+00  2.9243e+01
6.2491e+00  2.9141e+01
6.3055e+00  3.3020e+01
6.3618e+00  4.9037e+01
6.4182e+00  2.9001e+01
6.4745e+00  2.8134e+01
6.5308e+00  2.7754e+01
6.5871e+00  2.7697e+01
6.6434e+00  2.7792e+01
6.6997e+00  2.8413e+01
6.7560e+00  2.8384e+01
6.8123e+00  2.8451e+01
6.8685e+00  2.7668e+01
6.9247e+00  2.8970e+01
6.9810e+00  3.0057e+01
7.0372e+00  2.7298e+01
7.0934e+00  2.7480e+01
7.1496e+00  2.7416e+01
7.2057e+00  2.7185e+01
7.2619e+00  2.7546e+01
7.3180e+00  1.5008e+02
7.3742e+00  2.7661e+01
7.4303e+00  2.7113e+01
7.4864e+00  2.7608e+01
7.5425e+00  2.6855e+01
7.5985e+00  2.7109e+01
7.6546e+00  2.8041e+01
7.7106e+00  2.9237e+01
7.7667e+00  3.7810e+02
7.8227e+00  2.9064e+01
7.8787e+00  2.6793e+01
7.9347e+00  2.6660e+01
7.9907e+00  2.6863e+01
8.0466e+00  2.7590e+01
8.1026e+00  2.6825e+01
8.1585e+00  3.4978e+01
8.2144e+00  3.3281e+01
8.2703e+00  2.6634e+01
8.3262e+00  2.5870e+01
8.3821e+00  2.5981e+01
8.4379e+00  2.5923e+01
8.4938e+00  2.6466e+01
8.5496e+00  2.7721e+01
8.6054e+00  6.5568e+01
8.6612e+00  2.6212e+01
8.7170e+00  2.5785e+01
8.7727e+00  2.5396e+01
8.8285e+00  2.5463e+01
8.8842e+00  2.5506e+01
8.9399e+00  2.6425e+01
8.9956e+00  2.7375e+01
9.0513e+00  2.5485e+01
9.1069e+00  2.4876e+01
9.1626e+00  2.4888e+01
9.2182e+00  2.4807e+01
9.2738e+00  2.5166e+01
9.3294e+00  1.0033e+02
9.3850e+00  2.5576e+01
9.4406e+00  2.4953e+01
9.4961e+00  2.4360e+01
9.5516e+00  2.4492e+01
9.6071e+00  2.4883e+01
9.6626e+00  3.3859e+01
9.7181e+00  3.2936e+01
9.7735e+00  2.4778e+01
9.8290e+00  2.4957e+01
9.8844e+00  2.4261e+01
9.9398e+00  2.4232e+01
9.9952e+00  2.4175e+01
1.0051e+01  2.4043e+01
1.0106e+01  2.3771e+01
1.0161e+01  2.3932e+01
1.0217e+01  2.4091e+01
1.0272e+01  2.4215e+01
1.0327e+01  2.5231e+01
1.0382e+01  3.1929e+01
1.0438e+01  2.4380e+01
1.0493e+01  2.4176e+01
1.0548e+01  2.4464e+01
1.0603e+01  2.5685e+01
1.0658e+01  4.6087e+01
1.0713e+01  2.8738e+01
1.0769e+01  2.4649e+01
1.0824e+01  2.4389e+01
1.0879e+01  2.4522e+01
1.0934e+01  2.4853e+01
1.0989e+01  1.1851e+02
1.1044e+01  2.5081e+01
1.1099e+01  2.4511e+01
1.1154e+01  2.4136e+01
1.1209e+01  2.4249e+01
1.1263e+01  2.6256e+01
1.1318e+01  3.2719e+01
1.1373e+01  2.4906e+01
1.1428e+01  2.4341e+01
1.1483e+01  2.4389e+01
1.1537e+01  2.4785e+01
1.1592e+01  7.5323e+01
1.1647e+01  2.4820e+01
1.1701e+01  2.5148e+01
1.1756e+01  2.4984e+01
1.1810e+01  2.5323e+01
1.1865e+01  9.9843e+01
1.1919e+01  2.6227e+01
1.1973e+01  2.4942e+01
1.2028e+01  2.5034e+01
1.2082e+01  2.5101e+01
1.2136e+01  3.9143e+01
1.2191e+01  2.6923e+01
1.2245e+01  2.4723e+01
1.2299e+01  2.4486e+01
1.2353e+01  2.4493e+01
1.2407e+01  2.4551e+01
1.2461e+01  2.4411e+01
1.2515e+01  2.4567e+01
1.2569e+01  2.4449e+01
1.2622e+01  2.4445e+01
1.2676e+01  2.9551e+01
1.2730e+01  2.8176e+01
1.2784e+01  2.4691e+01
1.2837e+01  2.4691e+01
1.2891e+01  2.4808e+01
1.2944e+01  3.4885e+01
1.2998e+01  2.6885e+01
1.3051e+01  2.5295e+01
1.3105e+01  2.5136e+01
1.3158e+01  2.5685e+01
1.3211e+01  9.8100e+01
1.3264e+01  2.7093e+01
1.3318e+01  2.5787e+01
1.3371e+01  2.5368e+01
1.3424e+01  2.5679e+01
1.3477e+01  6.2862e+01
1.3530e+01  2.5519e+01
1.3583e+01  2.5239e+01
1.3636e+01  2.5224e+01
1.3688e+01  2.5387e+01
1.3741e+01  2.5389e+01
1.3794e+01  2.5512e+01
1.3846e+01  2.5656e+01
1.3899e+01  2.6198e+01
1.3952e+01  6.8034e+01
1.4004e+01  2.9721e+01
1.4056e+01  2.6020e+01
1.4109e+01  2.6098e+01
1.4161e+01  2.6535e+01
1.4213e+01  4.9103e+01
1.4266e+01  2.6387e+01
1.4318e+01  2.6010e+01
1.4370e+01  2.6146e+01
1.4422e+01  2.6084e+01
1.4474e+01  2.6489e+01
1.4526e+01  2.6649e+01
1.4578e+01  2.6226e+01
1.4630e+01  2.6096e+01
1.4681e+01  3.8005e+01
1.4733e+01  2.6745e+01
1.4785e+01  2.6701e+01
1.4836e+01  2.6827e+01
1.4888e+01  5.0670e+01
1.4939e+01  3.2509e+01
1.4991e+01  2.6429e+01
1.5042e+01  2.6639e+01
1.5094e+01  2.8361e+01
1.5145e+01  6.4024e+01
1.5196e+01  2.5502e+01
1.5247e+01  2.5694e+01
1.5298e+01  2.6481e+01
1.5349e+01  5.2468e+01
1.5400e+01  0.0000e+00
1.5489e+01  0.0000e+00

# 2Theta    Intensity
4.9787e-03  0.0000e+00
6.2943e-02  7.0000e-01
1.2300e-01  8.9063e-01
1.8308e-01  1.1959e+00
2.4315e-01  1.7462e+00
3.0323e-01  2.0795e+00
3.6331e-01  2.4415e+00
4.2339e-01  2.9724e+00
4.8348e-01  3.4124e+00
5.4356e-01  4.7737e+00
6.0364e-01  6.1608e+00
6.6372e-01  6.8927e+00
7.2380e-01  7.6531e+00
7.8388e-01  8.4584e+00
8.4396e-01  9.7770e+00
9.0405e-01  1.0301e+01
9.6412e-01  1.1439e+01
1.0242e+00  1.2847e+01
1.0843e+00  1.3513e+01
1.1444e+00  1.3691e+01
1.2044e+00  1.4033e+01
1.2645e+00  1.3928e+01
1.3246e+00  1.4008e+01
1.3846e+00  1.4005e+01
1.4447e+00  1.4051e+01
1.5048e+00  1.4062e+01
1.5648e+00  1.4198e+01
1.6249e+00  1.4220e+01
1.6850e+00  1.4277e+01
1.7450e+00  1.4268e+01
1.8051e+00  1.4242e+01
1.8651e+00  1.4214e+01
1.9252e+00  1.4150e+01
1.9852e+00  1.4065e+01
2.0453e+00  1.3973e+01
2.1053e+00  1.3855e+01
2.1653e+00  1.3773e+01
2.2254e+00  1.3753e+01
2.2854e+00  1.3679e+01
2.3454e+00  1.3634e+01
2.4054e+00  1.3594e+01
2.4654e+00  1.3557e+01
2.5254e+00  1.3467e+01
2.5854e+00  1.3436e+01
2.6455e+00  1.3412e+01
2.7054e+00  1.3405e+01
2.7654e+00  1.3387e+01
2.8254e+00  1.3337e+01
2.8854e+00  1.3406e+01
2.9454e+00  1.3424e+01
3.0054e+00  1.3393e+01
3.0653e+00  1.3347e+01
3.1253e+00  1.3555e+01
3.1852e+00  1.4011e+01
3.2452e+00  5.0993e+01
3.3051e+00  4.2940e+01
3.3651e+00  1.3672e+01
3.4250e+00  1.3076e+01
3.4849e+00  1.2841e+01
3.5448e+00  1.2703e+01
3.6047e+00  1.2593e+01
3.6646e+00  1.2412e+01
3.7245e+00  1.2345e+01
3.7844e+00  1.2350e+01
3.8443e+00  1.2321e+01
3.9042e+00  1.2268e+01
3.9640e+00  1.2243e+01
4.0239e+00  1.2248e+01
4.0838e+00  1.2233e+01
4.1436e+00  1.2147e+01
4.2034e+00  1.2164e+01
4.2633e+00  1.2157e+01
4.3231e+00  1.2150e+01
4.3829e+00  1.2282e+01
4.4427e+00  1.2445e+01
4.5024e+00  1.3036e+01
4.5621e+00  1.5504e+01
4.6218e+00  4.1928e+02
4.6815e+00  2.3078e+01
4.7412e+00  1.3140e+01
4.8009e+00  1.2261e+01
4.8605e+00  1.1967e+01
4.9202e+00  1.1874e+01
4.9798e+00  1.1754e+01
5.0395e+00  1.1642e+01
5.0991e+00  1.1514e+01
5.1587e+00  1.1584e+01
5.2183e+00  1.1502e+01
5.2779e+00  1.1437e+01
5.3374e+00  1.1511e+01
5.3970e+00  1.1712e+01
5.4566e+00  1.1675e+01
5.5161e+00  1.1787e+01
5.5756e+00  1.2347e+01
5.6351e+00  2.9302e+01
5.6946e+00  6.0165e+01
5.7541e+00  1.2672e+01
5.8136e+00  1.1796e+01
5.8731e+00  1.1492e+01
5.9325e+00  1.1377e+01
5.9920e+00  1.1313e+01
6.0514e+00  1.1268e+01
6.1108e+00  1.1265e+01
6.1702e+00  1.1229e+01
6.2296e+00  1.1270e+01
6.2890e+00  1.1287e+01
6.3483e+00  1.1384e+01
6.4077e+00  1.1403e+01
6.4670e+00  1.1826e+01
6.5263e+00  6.7569e+01
6.5856e+00  2.1375e+01
6.6449e+00  1.1730e+01
6.7042e+00  1.1408e+01
6.7635e+00  1.1257e+01
6.8227e+00  1.1271e+01
6.8819e+00  1.1229e+01
6.9412e+00  1.1234e+01
7.0004e+00  1.1262e+01
7.0596e+00  1.1294e+01
7.1187e+00  1.1444e+01
7.1779e+00  1.1712e+01
7.2370e+00  1.2726e+01
7.2962e+00  9.8620e+01
7.3553e+00  4.9770e+01
7.4144e+00  1.2486e+01
7.4735e+00  1.1568e+01
7.5325e+00  1.1312e+01
7.5916e+00  1.1143e+01
7.6506e+00  1.1115e+01
7.7096e+00  1.1047e+01
7.7686e+00  1.1095e+01
7.8276e+00  1.1198e+01
7.8866e+00  1.1352e+01
7.9456e+00  1.2079e+01
8.0045e+00  1.0126e+02
8.0634e+00  2.3677e+01
8.1223e+00  1.1567e+01
8.1812e+00  1.1163e+01
8.2401e+00  1.1036e+01
8.2989e+00  1.0932e+01
8.3577e+00  1.0914e+01
8.4166e+00  1.0867e+01
8.4754e+00  1.0881e+01
8.5341e+00  1.0865e+01
8.5929e+00  1.0891e+01
8.6516e+00  1.0886e+01
8.7104e+00  1.0893e+01
8.7691e+00  1.0902e+01
8.8278e+00  1.0851e+01
8.8864e+00  1.0859e+01
8.9451e+00  1.0849e+01
9.0037e+00  1.0918e+01
9.0623e+00  1.0929e+01
9.1209e+00  1.1036e+01
9.1795e+00  1.1293e+01
9.2381e+00  3.0226e+01
9.2966e+00  1.8389e+01
9.3551e+00  1.1257e+01
9.4136e+00  1.1047e+01
9.4721e+00  1.1049e+01
9.5305e+00  1.1027e+01
9.5890e+00  1.1080e+01
9.6474e+00  1.1212e+01
9.7058e+00  1.1487e+01
9.7642e+00  1.3480e+01
9.8225e+00  1.1461e+02
9.8809e+00  1.6635e+01
9.9392e+00  1.1572e+01
9.9975e+00  1.1222e+01
1.0056e+01  1.1096e+01
1.0114e+01  1.1112e+01
1.0172e+01  1.1133e+01
1.0230e+01  1.1305e+01
1.0289e+01  1.2161e+01
1.0347e+01  8.6825e+01
1.0405e+01  1.7690e+01
1.0463e+01  1.1448e+01
1.0521e+01  1.1146e+01
1.0579e+01  1.1061e+01
1.0637e+01  1.1038e+01
1.0695e+01  1.1035e+01
1.0753e+01  1.1226e+01
1.0811e+01  1.2811e+01
1.0869e+01  5.2739e+01
1.0927e+01  1.2433e+01
1.0985e+01  1.1168e+01
1.1043e+01  1.1019e+01
1.1101e+01  1.0925e+01
1.1159e+01  1.0777e+01
1.1217e+01  1.0915e+01
1.1275e+01  1.1016e+01
1.1332e+01  1.6798e+01
1.1390e+01  1.1787e+01
1.1448e+01  1.0798e+01
1.1506e+01  1.0780e+01
1.1563e+01  1.0895e+01
1.1621e+01  1.0803e+01
1.1679e+01  1.0923e+01
1.1736e+01  1.1173e+01
1.1794e+01  3.1210e+01
1.1851e+01  1.6149e+01
1.1909e+01  1.1099e+01
1.1966e+01  1.0977e+01
1.2024e+01  1.0943e+01
1.2081e+01  1.1045e+01
1.2139e+01  1.1221e+01
1.2196e+01  1.2307e+01
1.2254e+01  6.5206e+01
1.2311e+01  1.5970e+01
1.2368e+01  1.1268e+01
1.2426e+01  1.1062e+01
1.2483e+01  1.0838e+01
1.2540e+01  1.0790e+01
1.2598e+01  1.0773e+01
1.2655e+01  1.0753e+01
1.2712e+01  1.0758e+01
1.2769e+01  1.0752e+01
1.2826e+01  1.0736e+01
1.2883e+01  1.0754e+01
1.2940e+01  1.0754e+01
1.2997e+01  1.0898e+01
1.3054e+01  1.1209e+01
1.3111e+01  1.8167e+01
1.3168e+01  1.1379e+01
1.3225e+01  1.0878e+01
1.3282e+01  1.0857e+01
1.3338e+01  1.0901e+01
1.3395e+01  1.1150e+01
1.3452e+01  1.2132e+01
1.3508e+01  5.0667e+01
1.3565e+01  1.5456e+01
1.3621e+01  1.1307e+01
1.3678e+01  1.1045e+01
1.3734e+01  1.0930e+01
1.3790e+01  1.1109e+01
1.3847e+01  1.1979e+01
1.3903e+01  4.3102e+01
1.3959e+01  1.4989e+01
1.4015e+01  1.1126e+01
1.4072e+01  1.0830e+01
1.4128e+01  1.0747e+01
1.4184e+01  1.0900e+01
1.4240e+01  1.1878e+01
1.4296e+01  2.1078e+01
1.4351e+01  1.1750e+01
1.4407e+01  1.0835e+01
1.4463e+01  1.0725e+01
1.4519e+01  1.0745e+01
1.4574e+01  1.0841e+01
1.4630e+01  1.6917e+01
1.4685e+01  2.0247e+01
1.4741e+01  1.1337e+01
1.4796e+01  1.0797e+01
1.4852e+01  1.0830e+01
1.4907e+01  1.0906e+01
1.4962e+01  1.1832e+01
1.5017e+01  3.6347e+01
1.5073e+01  1.7241e+01
1.5128e+01  1.1174e+01
1.5183e+01  1.0693e+01
1.5238e+01  1.0687e+01
1.5293e+01  1.0810e+01
1.5348e+01  1.5443e+01
1.5402e+01  1.8288e+01
1.5457e+01  1.1327e+01
1.5512e+01  1.0319e+01
1.5566e+01  1.0368e+01
1.5621e+01  1.0455e+01
1.5675e+01  1.0484e+01
1.5730e+01  1.0458e+01
1.5784e+01  1.0510e+01
1.5839e+01  1.0204e+01
1.5893e+01  1.0290e+01
1.5947e+01  1.0387e+01
1.6001e+01  1.0827e+01
1.6056e+01  1.2335e+01
1.6110e+01  1.4831e+01
1.6164e+01  0.0000e+00
1.6218e+01  0.0000e+00
1.6271e+01  0.0000e+00
1.6341e+01  0.0000e+00

# 2Theta    Intensity
5.6154e-03  0.0000e+00
7.1766e-02  6.3388e-01
1.4012e-01  1.0021e+00
2.0847e-01  1.3172e+00
2.7682e-01  2.8903e+00
3.4517e-01  4.0347e+00
4.1352e-01  4.6294e+00
4.8187e-01  5.1796e+00
5.5022e-01  5.6037e+00
6.1857e-01  5.7621e+00
6.8692e-01  5.7244e+00
7.5526e-01  5.7393e+00
8.2360e-01  6.3226e+00
8.9194e-01  7.1407e+00
9.6028e-01  8.0690e+00
1.0286e+00  8.7744e+00
1.0970e+00  9.4805e+00
1.1653e+00  1.0158e+01
1.2336e+00  1.0350e+01
1.3019e+00  1.0575e+01
1.3703e+00  1.0535e+01
1.4386e+00  1.0356e+01
1.5069e+00  1.0450e+01
1.5752e+00  9.9764e+00
1.6435e+00  9.9958e+00
1.7118e+00  1.0125e+01
1.7801e+00  1.0057e+01
1.8484e+00  1.0046e+01
1.9167e+00  1.0106e+01
1.9850e+00  1.0037e+01
2.0532e+00  1.0020e+01
2.1215e+00  1.0167e+01
2.1898e+00  1.0143e+01
2.2580e+00  1.0275e+01
2.3263e+00  1.0239e+01
2.3945e+00  1.0247e+01
2.4628e+00  1.0607e+01
2.5310e+00  1.6227e+01
2.5993e+00  5.3695e+01
2.6675e+00  1.0403e+01
2.7357e+00  9.6914e+00
2.8039e+00  9.4874e+00
2.8721e+00  9.3414e+00
2.9403e+00  9.2742e+00
3.0085e+00  9.1814e+00
3.0766e+00  9.1684e+00
3.1448e+00  9.1444e+00
3.2130e+00  9.1143e+00
3.2811e+00  9.1277e+00
3.3493e+00  9.1978e+00
3.4174e+00  9.2694e+00
3.4855e+00  9.6275e+00
3.5536e+00  1.0823e+01
3.6217e+00  2.2701e+02
3.6898e+00  1.5213e+01
3.7579e+00  9.8249e+00
3.8260e+00  9.0962e+00
3.8940e+00  8.7088e+00
3.9621e+00  8.5719e+00
4.0301e+00  8.4453e+00
4.0981e+00  8.4088e+00
4.1662e+00  8.4354e+00
4.2342e+00  8.4483e+00
4.3021e+00  8.5853e+00
4.3701e+00  9.0700e+00
4.4380e+00  8.5542e+01
4.5059e+00  1.1734e+01
4.5738e+00  8.6774e+00
4.6417e+00  8.3976e+00
4.7096e+00  8.2270e+00
4.7775e+00  8.1556e+00
4.8453e+00  8.1604e+00
4.9132e+00  8.1838e+00
4.9810e+00  8.2076e+00
5.0488e+00  8.4573e+00
5.1166e+00  1.7071e+01
5.1844e+00  1.3795e+01
5.2522e+00  8.4786e+00
5.3199e+00  8.3113e+00
5.3877e+00  8.2632e+00
5.4554e+00  8.2602e+00
5.5231e+00  8.2904e+00
5.5908e+00  8.5000e+00
5.6585e+00  8.9848e+00
5.7261e+00  3.5704e+01
5.7938e+00  2.0125e+01
5.8614e+00  8.9246e+00
5.9290e+00  8.3791e+00
5.9966e+00  8.2258e+00
6.0642e+00  8.1386e+00
6.1318e+00  8.1683e+00
6.1993e+00  8.4193e+00
6.2668e+00  1.2905e+01
6.3344e+00  2.9032e+01
6.4018e+00  8.3581e+00
6.4693e+00  8.1051e+00
6.5368e+00  7.9375e+00
6.6042e+00  7.8900e+00
6.6716e+00  7.8341e+00
6.7390e+00  7.8667e+00
6.8064e+00  7.8549e+00
6.8738e+00  7.8781e+00
6.9411e+00  7.8925e+00
7.0084e+00  7.8326e+00
7.0757e+00  7.9180e+00
7.1430e+00  7.9666e+00
7.2103e+00  8.1669e+00
7.2775e+00  7.0333e+01
7.3447e+00  8.4081e+00
7.4119e+00  8.1163e+00
7.4791e+00  8.1276e+00
7.5463e+00  8.1775e+00
7.6134e+00  8.5200e+00
7.6805e+00  1.1626e+01
7.7476e+00  6.3688e+01
7.8147e+00  8.6692e+00
7.8817e+00  8.3393e+00
7.9488e+00  8.2573e+00
8.0158e+00  8.3918e+00
8.0828e+00  9.0656e+00
8.1497e+00  1.5741e+02
8.2167e+00  8.7399e+00
8.2836e+00  8.3287e+00
8.3505e+00  8.1946e+00
8.4173e+00  8.2380e+00
8.4842e+00  8.7415e+00
8.5510e+00  8.6453e+01
8.6178e+00  8.3619e+00
8.6846e+00  8.0958e+00
8.7514e+00  7.9486e+00
8.8181e+00  8.0042e+00
8.8848e+00  8.5731e+00
8.9515e+00  9.8729e+00
9.0181e+00  8.0232e+00
9.0847e+00  7.9948e+00
9.1514e+00  8.0341e+00
9.2179e+00  8.1983e+00
9.2845e+00  6.1774e+01
9.3510e+00  8.3224e+00
9.4175e+00  8.1132e+00
9.4840e+00  8.1516e+00
9.5504e+00  8.4051e+00
9.6169e+00  4.0426e+01
9.6833e+00  1.0580e+01
9.7496e+00  8.2823e+00
9.8160e+00  8.0869e+00
9.8823e+00  8.1169e+00
9.9486e+00  8.0793e+00
1.0015e+01  8.0383e+00
1.0081e+01  8.1194e+00
1.0147e+01  8.1059e+00
1.0213e+01  8.1810e+00
1.0280e+01  1.1026e+01
1.0346e+01  8.8258e+00
1.0412e+01  8.2576e+00
1.0478e+01  8.3643e+00
1.0544e+01  8.5754e+00
1.0610e+01  5.7933e+01
1.0676e+01  9.2721e+00
1.0742e+01  8.4354e+00
1.0808e+01  8.4479e+00
1.0874e+01  8.8190e+00
1.0940e+01  7.4882e+01
1.1005e+01  8.5591e+00
1.1071e+01  8.3708e+00
1.1137e+01  8.3277e+00
1.1203e+01  1.1162e+01
1.1269e+01  9.8764e+00
1.1334e+01  8.2672e+00
1.1400e+01  8.3051e+00
1.1466e+01  8.4879e+00
1.1531e+01  4.2543e+01
1.1597e+01  8.3771e+00
1.1662e+01  8.3079e+00
1.1728e+01  8.5030e+00
1.1793e+01  3.7227e+01
1.1859e+01  9.5289e+00
1.1924e+01  8.4784e+00
1.1989e+01  8.3042e+00
1.2055e+01  1.0123e+01
1.2120e+01  1.2944e+01
1.2185e+01  8.2365e+00
1.2251e+01  8.1351e+00
1.2316e+01  8.1597e+00
1.2381e+01  8.1213e+00
1.2446e+01  8.1685e+00
1.2511e+01  8.1062e+00
1.2576e+01  8.3017e+00
1.2641e+01  2.2175e+01
1.2706e+01  8.2027e+00
1.2771e+01  8.1717e+00
1.2836e+01  8.3453e+00
1.2901e+01  2.3085e+01
1.2966e+01  8.3233e+00
1.3031e+01  8.3906e+00
1.3096e+01  9.0520e+00
1.3161e+01  5.9546e+01
1.3225e+01  8.5652e+00
1.3290e+01  8.3819e+00
1.3355e+01  8.9534e+00
1.3419e+01  2.3062e+01
1.3484e+01  8.3074e+00
1.3549e+01  8.2548e+00
1.3613e+01  8.2227e+00
1.3678e+01  8.2471e+00
1.3742e+01  8.2811e+00
1.3807e+01  8.3897e+00
1.3871e+01  2.8850e+01
1.3935e+01  9.2877e+00
1.4000e+01  8.3103e+00
1.4064e+01  8.3623e+00
1.4128e+01  2.3480e+01
1.4192e+01  8.2860e+00
1.4257e+01  8.2313e+00
1.4321e+01  8.1345e+00
1.4385e+01  8.1794e+00
1.4449e+01  8.1490e+00
1.4513e+01  8.2288e+00
1.4577e+01  1.1924e+01
1.4641e+01  8.4317e+00
1.4704e+01  8.3388e+00
1.4768e+01  8.7126e+00
1.4832e+01  3.4281e+01
1.4896e+01  8.5209e+00
1.4959e+01  8.5354e+00
1.5023e+01  1.7476e+01
1.5086e+01  9.8174e+00
1.5150e+01  8.4683e+00
1.5213e+01  8.6824e+00
1.5276e+01  2.7479e+01
1.5340e+01  8.4079e+00
1.5403e+01  8.3606e+00
1.5466e+01  1.3976e+01
1.5529e+01  8.6768e+00
1.5592e+01  8.2103e+00
1.5655e+01  8.4425e+00
1.5718e+01  1.2429e+01
1.5781e+01  8.2245e+00
1.5844e+01  8.2508e+00
1.5906e+01  2.4116e+01
1.5969e+01  8.3241e+00
1.6032e+01  8.0834e+00
1.6094e+01  8.0953e+00
1.6157e+01  8.0954e+00
1.6219e+01  8.0487e+00
1.6281e+01  8.3187e+00
1.6343e+01  1.3817e+01
1.6406e+01  8.1586e+00
1.6468e+01  8.3253e+00
1.6530e+01  3.0604e+01
1.6592e+01  8.3416e+00
1.6654e+01  8.0965e+00
1.6716e+01  1.3056e+01
1.6777e+01  8.4176e+00
1.6839e+01  7.9448e+00
1.6901e+01  8.7335e+00
1.6962e+01  9.2816e+00
1.7024e+01  7.9354e+00
1.7085e+01  8.0093e+00
1.7146e+01  1.0895e+01
1.7208e+01  8.0018e+00
1.7269e+01  8.1162e+00
1.7330e+01  2.2225e+01
1.7391e+01  7.9050e+00
1.7452e+01  7.9706e+00
1.7513e+01  1.6747e+01
1.7574e+01  7.8670e+00
1.7635e+01  7.7723e+00
1.7695e+01  7.6391e+00
1.7756e+01  7.6027e+00
1.7816e+01  7.4674e+00
1.7877e+01  8.2056e+00
1.7937e+01  7.6662e+00
1.7998e+01  7.6236e+00
1.8058e+01  1.0283e+01
1.8118e+01  9.0736e+00
1.8178e+01  7.6395e+00
1.8238e+01  1.0552e+01
1.8298e+01  1.1688e+01
1.8358e+01  7.6342e+00
1.8418e+01  9.1829e+00
1.8477e+01  1.0829e+01
1.8537e+01  7.6436e+00
1.8597e+01  8.2895e+00
1.8656e+01  9.3281e+00
1.8716e+01  0.0000e+00
1.8775e+01  0.0000e+00
1.8864e+01  0.0000e+00