Folder: code/_archive/xrd_analysis/notebooks/pyFAI-calib2/reza-Dec2018

Note: _archive/xrd_analysis/notebooks/pyFAI-calib2/reza-Dec2018/img.yaml
analysis_stage: raw
beamline_config:
  Filters: [1Cu, 2Cu, 3Cu, 4Cu]
  Verification time: '2018-10-02 21:17:08'
  Verified by: hz
  beamstop: W
beamline_id: 28-id-2
bt_experimenters: [Maria, Randy, Mehmet, Simerjeet, Park, Alejandro]
bt_piLast: Ecker_Okuniewski
bt_safN: '302990'
bt_uid: 27444d7a
bt_wavelength: 0.1877
calibration_md:
  calibrant_name: undefined
  centerX: 1904.0320528422149
  centerY: 1004.0601572785001
  dSpacing:
  - !!python/object/apply:numpy.core.multiarray.scalar
    - &id001 !!python/object/apply:numpy.dtype
      args: [f8, 0, 1]
      state: !!python/tuple [3, <, null, null, null, -1, -1, 0]
    - !!binary |
      Zaa0/pagEEA=
  - !!python/object/apply:numpy.core.multiarray.scalar
    - *id001
    - !!binary |
      d94hILqDB0A=
  - !!python/object/apply:numpy.core.multiarray.scalar
    - *id001
    - !!binary |
      s0rhKBYzA0A=
  - !!python/object/apply:numpy.core.multiarray.scalar
    - *id001
    - !!binary |
      Zaa0/pagAEA=
  - !!python/object/apply:numpy.core.multiarray.scalar
    - *id001
    - !!binary |
      du3BWmu+/T8=
  - !!python/object/apply:numpy.core.multiarray.scalar
    - *id001
    - !!binary |
      LD3Dafsm+z8=
  - !!python/object/apply:numpy.core.multiarray.scalar
    - *id001
    - !!binary |
      ZXd5IbqD9z8=
  - !!python/object/apply:numpy.core.multiarray.scalar
    - *id001
    - !!binary |
      0UMr/3Mr9j8=
  - !!python/object/apply:numpy.core.multiarray.scalar
    - *id001
    - !!binary |
      zXv3IjUI9T8=
  - !!python/object/apply:numpy.core.multiarray.scalar
    - *id001
    - !!binary |
      HW3B96MN9D8=
  - !!python/object/apply:numpy.core.multiarray.scalar
    - *id001
    - !!binary |
      oeM4KhYz8z8=
  - !!python/object/apply:numpy.core.multiarray.scalar
    - *id001
    - !!binary |
      ovlSLkNy8j8=
  - !!python/object/apply:numpy.core.multiarray.scalar
    - *id001
    - !!binary |
      nQUtZnzG8T8=
  - !!python/object/apply:numpy.core.multiarray.scalar
    - *id001
    - !!binary |
      Zaa0/pag8D8=
  - !!python/object/apply:numpy.core.multiarray.scalar
    - *id001
    - !!binary |
      y1fZqX8h8D8=
  - !!python/object/apply:numpy.core.multiarray.scalar
    - *id001
    - !!binary |
      YQdjfk1a7z8=
  - !!python/object/apply:numpy.core.multiarray.scalar
    - *id001
    - !!binary |
      vkkVvTqE7j8=
  - !!python/object/apply:numpy.core.multiarray.scalar
    - *id001
    - !!binary |
      du3BWmu+7T8=
  - !!python/object/apply:numpy.core.multiarray.scalar
    - *id001
    - !!binary |
      jvCsk+kG7T8=
  - !!python/object/apply:numpy.core.multiarray.scalar
    - *id001
    - !!binary |
      ewaiYRBc7D8=
  - !!python/object/apply:numpy.core.multiarray.scalar
    - *id001
    - !!binary |
      UAsUZ/sm6z8=
  - !!python/object/apply:numpy.core.multiarray.scalar
    - *id001
    - !!binary |
      PAohMYua6j8=
  - !!python/object/apply:numpy.core.multiarray.scalar
    - *id001
    - !!binary |
      e8PYnUkW6j8=
  - !!python/object/apply:numpy.core.multiarray.scal

File: img.csv
radial;intensity
0.004380186;5.400173
0.03942167;5.555991
0.07446316;7.686125
0.1095046;11.28161
0.1445461;15.92256
0.1795876;20.28622
0.2146291;23.38786
0.2496706;25.99738
0.2847121;27.61812
0.3197536;28.9917
0.354795;31.15065
0.3898365;39.07969
0.424878;45.88295
0.4599195;48.87462
0.494961;55.51484
0.5300025;60.80738
0.565044;62.75796
0.6000854;63.04967
0.6351269;62.37596
0.6701684;61.80014
0.7052099;61.19502
0.7402514;61.68584
0.7752929;63.51794
0.8103344;63.1921
0.8453758;61.73018
0.8804173;60.86657
0.9154588;59.95112
0.9505003;59.88243
0.9855418;60.55835
1.020583;61.0534
1.055625;61.09612
1.090666;59.9509
1.125708;59.79983
1.160749;60.03136
1.195791;59.12371
1.230832;58.54747
1.265874;57.96821
1.300915;57.42654
1.335957;58.11407
1.370998;55.9784
1.40604;55.45346
1.441081;55.22702
1.476123;55.96973
1.511164;884.524
1.546206;55.21841
1.581247;53.2272
1.616289;52.52886
1.65133;54.19072
1.686371;48.53109
1.721413;47.76141
1.756454;47.09998
1.791496;47.68881
1.826537;46.9759
1.861579;47.911
1.89662;46.19304
1.931662;43.80654
1.966703;42.80952
2.001745;42.69807
2.036786;41.5861
2.071828;41.44366
2.106869;43.65459
2.141911;996.4696
2.176952;41.03314
2.211994;37.57609
2.247035;37.33204
2.282077;36.25303
2.317118;36.44326
2.35216;41.76155
2.387201;38.66802
2.422243;33.95145
2.457284;34.51004
2.492326;33.42675
2.527367;36.17639
2.562409;33.28591
2.59745;38.82365
2.632492;57.04657
2.667533;33.09077
2.702575;31.96267
2.737616;32.60559
2.772658;31.17846
2.807699;31.19148
2.842741;32.0741
2.877782;34.17075
2.912823;31.00426
2.947865;31.31211
2.982906;31.84983
3.017948;234.1002
3.052989;31.72398
3.088031;31.19624
3.123072;31.8146
3.158114;30.41358
3.193155;30.64567
3.228197;31.18596
3.263238;31.51607
3.29828;31.87057
3.333321;31.78791
3.368363;147.1166
3.403404;35.13928
3.438446;30.33514
3.473487;29.51385
3.508529;29.43508
3.54357;30.0934
3.578612;29.95181
3.613653;29.94188
3.648695;29.54391
3.683736;37.1715
3.718778;41.20894
3.753819;29.3429
3.788861;28.53704
3.823902;28.30002
3.858944;28.14479
3.893985;28.3105
3.929027;29.63972
3.964068;28.28614
3.99911;28.57592
4.034151;28.72221
4.069193;31.77907
4.104234;28.17263
4.139275;28.06075
4.174317;27.99318
4.209358;27.79132
4.2444;28.15672
4.279441;128.83
4.314483;28.0266
4.349524;28.03786
4.384566;27.74099
4.419607;27.49678
4.454649;27.91314
4.48969;28.38285
4.524732;146.7383
4.559773;30.58611
4.594815;27.65125
4.629856;27.2329
4.664898;27.55338
4.699939;28.10345
4.734981;27.68755
4.770022;112.1234
4.805064;29.00056
4.840105;27.10435
4.875147;26.7167
4.910188;26.70353
4.94523;26.78089
4.980271;27.94848
5.015313;169.8219
5.050354;27.22982
5.085396;26.70299
5.120437;26.32196
5.155479;26.36885
5.19052;26.53583
5.225562;34.59993
5.260603;26.58235
5.295645;26.02132
5.330686;25.79857
5.365727;25.74365
5.400769;25.97183
5.43581;36.8493
5.470852;27.73943
5.505893;26.40195
5.540935;25.32007
5.575976;25.3784
5.611018;25.89819
5.646059;97.17454
5.681101;27.37669
5.716142;25.78642
5.751184;25.86547
5.786225;25.31244
5.821267;25.2598
5.856308;24.94994
5.89135;24.94234
5.926391;24.89938
5.961433;25.15336
5.996474;25.24568
6.031516;28.94162
6.066557;26.63063
6.101599;25.45051
6.13664;25.43017
6.171682;25.89562
6.206723;28.5605
6.241765;111.7505
6.276806;26.05468
6.311848;25.61956
6.346889;25.72362
6.381931;26.25054
6.416972;122.6864
6.452014;26.13671
6.487055;25.65621
6.522097;25.6142
6.557138;25.9054
6.592179;64.07198
6.627221;26.53776
6.662262;25.81186
6.697304;25.79335
6.732345;26.27478
6.767387;73.2662
6.802428;26.18881
6.83747;26.62567
6.872511;26.54238
6.907553;29.89971
6.942594;58.2902
6.977636;26.56631
7.012677;26.44842
7.047719;26.70372
7.08276;53.96206
7.117802;27.11793
7.152843;26.2417
7.187885;26.03418
7.222926;26.30082
7.257968;26.08381
7.293009;26.15652
7.328051;26.18544
7.363092;26.30637
7.398134;40.87642
7.433175;27.22018
7.468217;26.57493
7.503258;26.70253
7.5383;27.52124
7.573341;39.40707
7.608383;27.47388
7.643424;27.1728
7.678466;27.94232
7.713507;118.2223
7.748549;27.91394
7.78359;27.68855
7.818631;27.57014
7.853673;64.08636
7.888714;27.74392
7.923756;27.33893
7.958797;27.54815
7.993839;27.62026
8.02888;27.636
8.063922;27.96664
8.098963;28.44663
8.134005;72.50214
8.169046;30.06842
8.204088;28.49054
8.239129;28.60076
8.274171;46.13881
8.309212;29.16412
8.344254;28.49662
8.379295;28.57361
8.414337;28.8594
8.449378;29.52127
8.48442;28.95383
8.519461;28.83231
8.554503;41.3333
8.589544;29.12273
8.624586;29.34641
8.659627;29.82188
8.694669;70.12048
8.72971;29.44454
8.764752;29.52125
8.799793;35.42093
8.834835;43.45008
8.869876;28.67522
8.904918;28.79814
8.939959;52.40133
8.96624;0