Folder: code/_archive/xrd_analysis/notebooks/mask-and-integrate/reza-Dec2018/LaB6

File: LaB6_SPIN_20181005-035312_dx_47.000mm_63650b_0001.xy
# 2Theta    Intensity
4.3096e-03  6.2467e+00
5.9565e-02  5.7347e+00
1.1654e-01  6.1063e+00
1.7352e-01  9.9720e+00
2.3049e-01  1.4762e+01
2.8747e-01  1.9161e+01
3.4445e-01  2.2395e+01
4.0142e-01  2.5077e+01
4.5840e-01  2.7201e+01
5.1537e-01  2.9616e+01
5.7235e-01  3.0338e+01
6.2933e-01  3.3769e+01
6.8630e-01  4.2057e+01
7.4327e-01  4.5188e+01
8.0025e-01  5.1064e+01
8.5722e-01  5.5815e+01
9.1419e-01  6.0476e+01
9.7116e-01  6.4425e+01
1.0281e+00  6.3838e+01
1.0851e+00  6.2861e+01
1.1421e+00  6.1740e+01
1.1990e+00  6.1265e+01
1.2560e+00  6.1478e+01
1.3130e+00  6.3063e+01
1.3699e+00  6.3542e+01
1.4269e+00  6.1916e+01
1.4838e+00  6.1252e+01
1.5408e+00  6.0231e+01
1.5977e+00  5.9769e+01
1.6547e+00  6.0170e+01
1.7116e+00  6.0639e+01
1.7686e+00  6.0918e+01
1.8255e+00  6.0550e+01
1.8825e+00  5.9729e+01
1.9394e+00  5.9775e+01
1.9963e+00  5.9885e+01
2.0532e+00  5.8830e+01
2.1102e+00  5.8190e+01
2.1671e+00  5.7666e+01
2.2240e+00  5.7198e+01
2.2809e+00  5.8378e+01
2.3378e+00  5.6146e+01
2.3947e+00  5.5333e+01
2.4516e+00  5.4959e+01
2.5085e+00  5.4965e+01
2.5654e+00  8.3790e+01
2.6223e+00  5.8448e+01
2.6792e+00  5.3258e+01
2.7361e+00  5.3228e+01
2.7930e+00  5.0500e+01
2.8498e+00  5.1465e+01
2.9067e+00  4.7890e+01
2.9636e+00  4.7452e+01
3.0204e+00  4.6789e+01
3.0773e+00  4.8052e+01
3.1341e+00  4.6695e+01
3.1910e+00  4.7701e+01
3.2478e+00  4.5846e+01
3.3046e+00  4.4144e+01
3.3615e+00  4.2919e+01
3.4183e+00  4.2408e+01
3.4751e+00  4.2051e+01
3.5319e+00  4.1290e+01
3.5887e+00  4.1453e+01
3.6455e+00  4.0395e+02
3.7023e+00  4.4788e+01
3.7590e+00  3.8279e+01
3.8158e+00  3.6675e+01
3.8726e+00  3.7462e+01
3.9293e+00  3.5630e+01
3.9861e+00  3.8112e+01
4.0428e+00  3.7462e+01
4.0996e+00  3.5997e+01
4.1563e+00  3.3525e+01
4.2130e+00  3.5078e+01
4.2697e+00  3.3025e+01
4.3264e+00  3.6238e+01
4.3831e+00  3.3120e+01
4.4398e+00  3.6055e+01
4.4965e+00  1.5154e+02
4.5532e+00  3.3249e+01
4.6099e+00  3.2054e+01
4.6665e+00  3.1512e+01
4.7232e+00  3.1109e+01
4.7798e+00  3.0717e+01
4.8364e+00  3.1220e+01
4.8931e+00  3.2896e+01
4.9497e+00  3.1184e+01
5.0063e+00  3.0745e+01
5.0629e+00  3.0917e+01
5.1195e+00  3.1303e+01
5.1760e+00  3.5445e+02
5.2326e+00  3.1022e+01
5.2892e+00  3.0718e+01
5.3457e+00  3.1579e+01
5.4023e+00  3.0065e+01
5.4588e+00  3.0199e+01
5.5153e+00  3.0970e+01
5.5718e+00  3.0864e+01
5.6283e+00  3.0848e+01
5.6848e+00  3.3567e+01
5.7413e+00  3.3464e+01
5.7978e+00  3.7442e+02
5.8542e+00  3.0911e+01
5.9107e+00  2.9447e+01
5.9671e+00  2.9022e+01
6.0235e+00  2.9090e+01
6.0799e+00  3.0070e+01
6.1363e+00  2.9269e+01
6.1927e+00  2.9243e+01
6.2491e+00  2.9141e+01
6.3055e+00  3.3020e+01
6.3618e+00  4.9037e+01
6.4182e+00  2.9001e+01
6.4745e+00  2.8134e+01
6.5308e+00  2.7754e+01
6.5871e+00  2.7697e+01
6.6434e+00  2.7792e+01
6.6997e+00  2.8413e+01
6.7560e+00  2.8384e+01
6.8123e+00  2.8451e+01
6.8685e+00  2.7668e+01
6.9247e+00  2.8970e+01
6.9810e+00  3.0057e+01
7.0372e+00  2.7298e+01
7.0934e+00  2.7480e+01
7.1496e+00  2.7416e+01
7.2057e+00  2.7185e+01
7.2619e+00  2.7546e+01
7.3180e+00  1.5008e+02
7.3742e+00  2.7661e+01
7.4303e+00  2.7113e+01
7.4864e+00  2.7608e+01
7.5425e+00  2.6855e+01
7.5985e+00  2.7109e+01
7.6546e+00  2.8041e+01
7.7106e+00  2.9237e+01
7.7667e+00  3.7810e+02
7.8227e+00  2.9064e+01
7.8787e+00  2.6793e+01
7.9347e+00  2.6660e+01
7.9907e+00  2.6863e+01
8.0466e+00  2.7590e+01
8.1026e+00  2.6825e+01
8.1585e+00  3.4978e+01
8.2144e+00  3.3281e+01
8.2703e+00  2.6634e+01
8.3262e+00  2.5870e+01
8.3821e+00  2.5981e+01
8.4379e+00  2.5923e+01
8.4938e+00  2.6466e+01
8.5496e+00  2.7721e+01
8.6054e+00  6.5568e+01
8.6612e+00  2.6212e+01
8.7170e+00  2.5785e+01
8.7727e+00  2.5396e+01
8.8285e+00  2.5463e+01
8.8842e+00  2.5506e+01
8.9399e+00  2.6425e+01
8.9956e+00  2.7375e+01
9.0513e+00  2.5485e+01
9.1069e+00  2.4876e+01
9.1626e+00  2.4888e+01
9.2182e+00  2.4807e+01
9.2738e+00  2.5166e+01
9.3294e+00  1.0033e+02
9.3850e+00  2.5576e+01
9.4406e+00  2.4953e+01
9.4961e+00  2.4360e+01
9.5516e+00  2.4492e+01
9.6071e+00  2.4883e+01
9.6626e+00  3.3859e+01
9.7181e+00  3.2936e+01
9.7735e+00  2.4778e+01
9.8290e+00  2.4957e+01
9.8844e+00  2.4261e+01
9.9398e+00  2.4232e+01
9.9952e+00  2.4175e+01
1.0051e+01  2.4043e+01
1.0106e+01  2.3771e+01
1.0161e+01  2.3932e+01
1.0217e+01  2.4091e+01
1.0272e+01  2.4215e+01
1.0327e+01  2.5231e+01
1.0382e+01  3.1929e+01
1.0438e+01  2.4380e+01
1.0493e+01  2.4176e+01
1.0548e+01  2.4464e+01
1.0603e+01  2.5685e+01
1.0658e+01  4.6087e+01
1.0713e+01  2.8738e+01
1.0769e+01  2.4649e+01
1.0824e+01  2.4389e+01
1.0879e+01  2.4522e+01
1.0934e+01  2.4853e+01
1.0989e+01  1.1851e+02
1.1044e+01  2.5081e+01
1.1099e+01  2.4511e+01
1.1154e+01  2.4136e+01
1.1209e+01  2.4249e+01
1.1263e+01  2.6256e+01
1.1318e+01  3.2719e+01
1.1373e+01  2.4906e+01
1.1428e+01  2.4341e+01
1.1483e+01  2.4389e+01
1.1537e+01  2.4785e+01
1.1592e+01  7.5323e+01
1.1647e+01  2.4820e+01
1.1701e+01  2.5148e+01
1.1756e+01  2.4984e+01
1.1810e+01  2.5323e+01
1.1865e+01  9.9843e+01
1.1919e+01  2.6227e+01
1.1973e+01  2.4942e+01
1.2028e+01  2.5034e+01
1.2082e+01  2.5101e+01
1.2136e+01  3.9143e+01
1.2191e+01  2.6923e+01
1.2245e+01  2.4723e+01
1.2299e+01  2.4486e+01
1.2353e+01  2.4493e+01
1.2407e+01  2.4551e+01
1.2461e+01  2.4411e+01
1.2515e+01  2.4567e+01
1.2569e+01  2.4449e+01
1.2622e+01  2.4445e+01
1.2676e+01  2.9551e+01
1.2730e+01  2.8176e+01
1.2784e+01  2.4691e+01
1.2837e+01  2.4691e+01
1.2891e+01  2.4808e+01
1.2944e+01  3.4885e+01
1.2998e+01  2.6885e+01
1.3051e+01  2.5295e+01
1.3105e+01  2.5136e+01
1.3158e+01  2.5685e+01
1.3211e+01  9.8100e+01
1.3264e+01  2.7093e+01
1.3318e+01  2.5787e+01
1.3371e+01  2.5368e+01
1.3424e+01  2.5679e+01
1.3477e+01  6.2862e+01
1.3530e+01  2.5519e+01
1.3583e+01  2.5239e+01
1.3636e+01  2.5224e+01
1.3688e+01  2.5387e+01
1.3741e+01  2.5389e+01
1.3794e+01  2.5512e+01
1.3846e+01  2.5656e+01
1.3899e+01  2.6198e+01
1.3952e+01  6.8034e+01
1.4004e+01  2.9721e+01
1.4056e+01  2.6020e+01
1.4109e+01  2.6098e+01
1.4161e+01  2.6535e+01
1.4213e+01  4.9103e+01
1.4266e+01  2.6387e+01
1.4318e+01  2.6010e+01
1.4370e+01  2.6146e+01
1.4422e+01  2.6084e+01
1.4474e+01  2.6489e+01
1.4526e+01  2.6649e+01
1.4578e+01  2.6226e+01
1.4630e+01  2.6096e+01
1.4681e+01  3.8005e+01
1.4733e+01  2.6745e+01
1.4785e+01  2.6701e+01
1.4836e+01  2.6827e+01
1.4888e+01  5.0670e+01
1.4939e+01  3.2509e+01
1.4991e+01  2.6429e+01
1.5042e+01  2.6639e+01
1.5094e+01  2.8361e+01
1.5145e+01  6.4024e+01
1.5196e+01  2.5502e+01
1.5247e+01  2.5694e+01
1.5298e+01  2.6481e+01
1.5349e+01  5.2468e+01
1.5400e+01  0.0000e+00
1.5489e+01  0.0000e+00