Folder: code/_archive/xrd_analysis/notebooks/mask-and-integrate/takaaki-Mar018/LaB6

File: LaB6_20180306-114028_dy=47.862mm_4edcb5_005.xy
# 2Theta    Intensity
4.9787e-03  0.0000e+00
6.2943e-02  7.0000e-01
1.2300e-01  8.9063e-01
1.8308e-01  1.1959e+00
2.4315e-01  1.7462e+00
3.0323e-01  2.0795e+00
3.6331e-01  2.4415e+00
4.2339e-01  2.9724e+00
4.8348e-01  3.4124e+00
5.4356e-01  4.7737e+00
6.0364e-01  6.1608e+00
6.6372e-01  6.8927e+00
7.2380e-01  7.6531e+00
7.8388e-01  8.4584e+00
8.4396e-01  9.7770e+00
9.0405e-01  1.0301e+01
9.6412e-01  1.1439e+01
1.0242e+00  1.2847e+01
1.0843e+00  1.3513e+01
1.1444e+00  1.3691e+01
1.2044e+00  1.4033e+01
1.2645e+00  1.3928e+01
1.3246e+00  1.4008e+01
1.3846e+00  1.4005e+01
1.4447e+00  1.4051e+01
1.5048e+00  1.4062e+01
1.5648e+00  1.4198e+01
1.6249e+00  1.4220e+01
1.6850e+00  1.4277e+01
1.7450e+00  1.4268e+01
1.8051e+00  1.4242e+01
1.8651e+00  1.4214e+01
1.9252e+00  1.4150e+01
1.9852e+00  1.4065e+01
2.0453e+00  1.3973e+01
2.1053e+00  1.3855e+01
2.1653e+00  1.3773e+01
2.2254e+00  1.3753e+01
2.2854e+00  1.3679e+01
2.3454e+00  1.3634e+01
2.4054e+00  1.3594e+01
2.4654e+00  1.3557e+01
2.5254e+00  1.3467e+01
2.5854e+00  1.3436e+01
2.6455e+00  1.3412e+01
2.7054e+00  1.3405e+01
2.7654e+00  1.3387e+01
2.8254e+00  1.3337e+01
2.8854e+00  1.3406e+01
2.9454e+00  1.3424e+01
3.0054e+00  1.3393e+01
3.0653e+00  1.3347e+01
3.1253e+00  1.3555e+01
3.1852e+00  1.4011e+01
3.2452e+00  5.0993e+01
3.3051e+00  4.2940e+01
3.3651e+00  1.3672e+01
3.4250e+00  1.3076e+01
3.4849e+00  1.2841e+01
3.5448e+00  1.2703e+01
3.6047e+00  1.2593e+01
3.6646e+00  1.2412e+01
3.7245e+00  1.2345e+01
3.7844e+00  1.2350e+01
3.8443e+00  1.2321e+01
3.9042e+00  1.2268e+01
3.9640e+00  1.2243e+01
4.0239e+00  1.2248e+01
4.0838e+00  1.2233e+01
4.1436e+00  1.2147e+01
4.2034e+00  1.2164e+01
4.2633e+00  1.2157e+01
4.3231e+00  1.2150e+01
4.3829e+00  1.2282e+01
4.4427e+00  1.2445e+01
4.5024e+00  1.3036e+01
4.5621e+00  1.5504e+01
4.6218e+00  4.1928e+02
4.6815e+00  2.3078e+01
4.7412e+00  1.3140e+01
4.8009e+00  1.2261e+01
4.8605e+00  1.1967e+01
4.9202e+00  1.1874e+01
4.9798e+00  1.1754e+01
5.0395e+00  1.1642e+01
5.0991e+00  1.1514e+01
5.1587e+00  1.1584e+01
5.2183e+00  1.1502e+01
5.2779e+00  1.1437e+01
5.3374e+00  1.1511e+01
5.3970e+00  1.1712e+01
5.4566e+00  1.1675e+01
5.5161e+00  1.1787e+01
5.5756e+00  1.2347e+01
5.6351e+00  2.9302e+01
5.6946e+00  6.0165e+01
5.7541e+00  1.2672e+01
5.8136e+00  1.1796e+01
5.8731e+00  1.1492e+01
5.9325e+00  1.1377e+01
5.9920e+00  1.1313e+01
6.0514e+00  1.1268e+01
6.1108e+00  1.1265e+01
6.1702e+00  1.1229e+01
6.2296e+00  1.1270e+01
6.2890e+00  1.1287e+01
6.3483e+00  1.1384e+01
6.4077e+00  1.1403e+01
6.4670e+00  1.1826e+01
6.5263e+00  6.7569e+01
6.5856e+00  2.1375e+01
6.6449e+00  1.1730e+01
6.7042e+00  1.1408e+01
6.7635e+00  1.1257e+01
6.8227e+00  1.1271e+01
6.8819e+00  1.1229e+01
6.9412e+00  1.1234e+01
7.0004e+00  1.1262e+01
7.0596e+00  1.1294e+01
7.1187e+00  1.1444e+01
7.1779e+00  1.1712e+01
7.2370e+00  1.2726e+01
7.2962e+00  9.8620e+01
7.3553e+00  4.9770e+01
7.4144e+00  1.2486e+01
7.4735e+00  1.1568e+01
7.5325e+00  1.1312e+01
7.5916e+00  1.1143e+01
7.6506e+00  1.1115e+01
7.7096e+00  1.1047e+01
7.7686e+00  1.1095e+01
7.8276e+00  1.1198e+01
7.8866e+00  1.1352e+01
7.9456e+00  1.2079e+01
8.0045e+00  1.0126e+02
8.0634e+00  2.3677e+01
8.1223e+00  1.1567e+01
8.1812e+00  1.1163e+01
8.2401e+00  1.1036e+01
8.2989e+00  1.0932e+01
8.3577e+00  1.0914e+01
8.4166e+00  1.0867e+01
8.4754e+00  1.0881e+01
8.5341e+00  1.0865e+01
8.5929e+00  1.0891e+01
8.6516e+00  1.0886e+01
8.7104e+00  1.0893e+01
8.7691e+00  1.0902e+01
8.8278e+00  1.0851e+01
8.8864e+00  1.0859e+01
8.9451e+00  1.0849e+01
9.0037e+00  1.0918e+01
9.0623e+00  1.0929e+01
9.1209e+00  1.1036e+01
9.1795e+00  1.1293e+01
9.2381e+00  3.0226e+01
9.2966e+00  1.8389e+01
9.3551e+00  1.1257e+01
9.4136e+00  1.1047e+01
9.4721e+00  1.1049e+01
9.5305e+00  1.1027e+01
9.5890e+00  1.1080e+01
9.6474e+00  1.1212e+01
9.7058e+00  1.1487e+01
9.7642e+00  1.3480e+01
9.8225e+00  1.1461e+02
9.8809e+00  1.6635e+01
9.9392e+00  1.1572e+01
9.9975e+00  1.1222e+01
1.0056e+01  1.1096e+01
1.0114e+01  1.1112e+01
1.0172e+01  1.1133e+01
1.0230e+01  1.1305e+01
1.0289e+01  1.2161e+01
1.0347e+01  8.6825e+01
1.0405e+01  1.7690e+01
1.0463e+01  1.1448e+01
1.0521e+01  1.1146e+01
1.0579e+01  1.1061e+01
1.0637e+01  1.1038e+01
1.0695e+01  1.1035e+01
1.0753e+01  1.1226e+01
1.0811e+01  1.2811e+01
1.0869e+01  5.2739e+01
1.0927e+01  1.2433e+01
1.0985e+01  1.1168e+01
1.1043e+01  1.1019e+01
1.1101e+01  1.0925e+01
1.1159e+01  1.0777e+01
1.1217e+01  1.0915e+01
1.1275e+01  1.1016e+01
1.1332e+01  1.6798e+01
1.1390e+01  1.1787e+01
1.1448e+01  1.0798e+01
1.1506e+01  1.0780e+01
1.1563e+01  1.0895e+01
1.1621e+01  1.0803e+01
1.1679e+01  1.0923e+01
1.1736e+01  1.1173e+01
1.1794e+01  3.1210e+01
1.1851e+01  1.6149e+01
1.1909e+01  1.1099e+01
1.1966e+01  1.0977e+01
1.2024e+01  1.0943e+01
1.2081e+01  1.1045e+01
1.2139e+01  1.1221e+01
1.2196e+01  1.2307e+01
1.2254e+01  6.5206e+01
1.2311e+01  1.5970e+01
1.2368e+01  1.1268e+01
1.2426e+01  1.1062e+01
1.2483e+01  1.0838e+01
1.2540e+01  1.0790e+01
1.2598e+01  1.0773e+01
1.2655e+01  1.0753e+01
1.2712e+01  1.0758e+01
1.2769e+01  1.0752e+01
1.2826e+01  1.0736e+01
1.2883e+01  1.0754e+01
1.2940e+01  1.0754e+01
1.2997e+01  1.0898e+01
1.3054e+01  1.1209e+01
1.3111e+01  1.8167e+01
1.3168e+01  1.1379e+01
1.3225e+01  1.0878e+01
1.3282e+01  1.0857e+01
1.3338e+01  1.0901e+01
1.3395e+01  1.1150e+01
1.3452e+01  1.2132e+01
1.3508e+01  5.0667e+01
1.3565e+01  1.5456e+01
1.3621e+01  1.1307e+01
1.3678e+01  1.1045e+01
1.3734e+01  1.0930e+01
1.3790e+01  1.1109e+01
1.3847e+01  1.1979e+01
1.3903e+01  4.3102e+01
1.3959e+01  1.4989e+01
1.4015e+01  1.1126e+01
1.4072e+01  1.0830e+01
1.4128e+01  1.0747e+01
1.4184e+01  1.0900e+01
1.4240e+01  1.1878e+01
1.4296e+01  2.1078e+01
1.4351e+01  1.1750e+01
1.4407e+01  1.0835e+01
1.4463e+01  1.0725e+01
1.4519e+01  1.0745e+01
1.4574e+01  1.0841e+01
1.4630e+01  1.6917e+01
1.4685e+01  2.0247e+01
1.4741e+01  1.1337e+01
1.4796e+01  1.0797e+01
1.4852e+01  1.0830e+01
1.4907e+01  1.0906e+01
1.4962e+01  1.1832e+01
1.5017e+01  3.6347e+01
1.5073e+01  1.7241e+01
1.5128e+01  1.1174e+01
1.5183e+01  1.0693e+01
1.5238e+01  1.0687e+01
1.5293e+01  1.0810e+01
1.5348e+01  1.5443e+01
1.5402e+01  1.8288e+01
1.5457e+01  1.1327e+01
1.5512e+01  1.0319e+01
1.5566e+01  1.0368e+01
1.5621e+01  1.0455e+01
1.5675e+01  1.0484e+01
1.5730e+01  1.0458e+01
1.5784e+01  1.0510e+01
1.5839e+01  1.0204e+01
1.5893e+01  1.0290e+01
1.5947e+01  1.0387e+01
1.6001e+01  1.0827e+01
1.6056e+01  1.2335e+01
1.6110e+01  1.4831e+01
1.6164e+01  0.0000e+00
1.6218e+01  0.0000e+00
1.6271e+01  0.0000e+00
1.6341e+01  0.0000e+00