Folder: code/_archive/xrd_analysis/notebooks/mask-and-integrate/simer-PBA/LaB6

Note: _archive/xrd_analysis/notebooks/mask-and-integrate/simer-PBA/LaB6/Lab6_calibrant_40ab4c.yml
analysis_stage: raw
beamline_config: {}
beamline_id: 28-ID-2
bt_experimenters: [Simer, Gill, Randy, Weidner]
bt_piLast: Gill
bt_safN: '301713'
bt_uid: 8fae86cd
bt_wavelength: 0.18667
calibration_md:
  calibrant_name: undefined
  centerX: 1744.2187968884791
  centerY: 1007.2541600342283
  dSpacing: [2.03458234862, 1.761935, 1.24592214845, 1.06252597829, 1.01729117431,
    0.881, 0.80846104616, 0.787990355271, 0.719333487797, 0.678194116208, 0.622961074225,
    0.595664718733, 0.587333333333, 0.557193323722, 0.537404961852, 0.531262989146,
    0.508645587156, 0.493458701611, 0.488690872874, 0.47091430825, 0.458785722296,
    0.4405, 0.430525121912, 0.427347771314]
  detector: Perkin detector
  directDist: 1185.5460677813164
  dist: 1.185542959153833
  pixel1: 0.0002
  pixel2: 0.0002
  pixelX: 200.0
  pixelY: 200.0
  poni1: 0.20138945068600533
  poni2: 0.35155799312739816
  poni_file_name: /tmp/tmpkdpdpcqm/from_calib_func.poni
  rot1: 0.002289439607813661
  rot2: 5.1774724353517843e-05
  rot3: -5.639906045552904e-10
  splineFile: null
  tilt: 0.13120876541155604
  tiltPlanRotation: 178.70449942944666
  time: 20171010-115347
  wavelength: 1.8667000000000002e-11
composition_string: B0.86La0.86
detector_calibration_client_uid: a1b70267-d372-43c6-8e63-bdbbb9f6b193
detectors: [pe1]
facility: NSLS-II
group: XPD
hints:
  dimensions:
  - [time, primary]
mask_client_uid: a1b70267-d372-43c6-8e63-bdbbb9f6b193
num_intervals: 0
num_points: 1
plan_args:
  detectors: ['PerkinElmerContinuous(prefix=''XF:28IDC-ES:1{Det:PE1}'', name=''pe1'',
      read_attrs=[''tiff'', ''stats1.total''], configuration_attrs=[''cam'', ''images_per_set'',
      ''number_of_sets''])']
  num: 1
plan_name: count
plan_type: generator
sa_uid: 12fd1486
sample_composition: {B: 0.86, La: 0.86}
sample_name: Lab6_calibrant
sample_phase: {B: 0.86, La: 0.14}
sc_dk_field_uid: 7b4ea529-7656-4ac7-a353-c61df4284fee
scan_id: 19
sp_computed_exposure: 30.0
sp_num_frames: 300.0
sp_plan_name: ct
sp_requested_exposure: 30
sp_time_per_frame: 0.1
sp_type: ct
sp_uid: 857de998-479c-4c47-ad62-d83098471385
time: 1507654050.3822935
uid: 40ab4cc1-5bc2-447d-b0d2-89f95bf95694
xpdacq_md_version: 0.1

File: Lab6_calibrant_20171010-124803_40ab4c_001.xy
# 2Theta    Intensity
5.6154e-03  0.0000e+00
7.1766e-02  6.3388e-01
1.4012e-01  1.0021e+00
2.0847e-01  1.3172e+00
2.7682e-01  2.8903e+00
3.4517e-01  4.0347e+00
4.1352e-01  4.6294e+00
4.8187e-01  5.1796e+00
5.5022e-01  5.6037e+00
6.1857e-01  5.7621e+00
6.8692e-01  5.7244e+00
7.5526e-01  5.7393e+00
8.2360e-01  6.3226e+00
8.9194e-01  7.1407e+00
9.6028e-01  8.0690e+00
1.0286e+00  8.7744e+00
1.0970e+00  9.4805e+00
1.1653e+00  1.0158e+01
1.2336e+00  1.0350e+01
1.3019e+00  1.0575e+01
1.3703e+00  1.0535e+01
1.4386e+00  1.0356e+01
1.5069e+00  1.0450e+01
1.5752e+00  9.9764e+00
1.6435e+00  9.9958e+00
1.7118e+00  1.0125e+01
1.7801e+00  1.0057e+01
1.8484e+00  1.0046e+01
1.9167e+00  1.0106e+01
1.9850e+00  1.0037e+01
2.0532e+00  1.0020e+01
2.1215e+00  1.0167e+01
2.1898e+00  1.0143e+01
2.2580e+00  1.0275e+01
2.3263e+00  1.0239e+01
2.3945e+00  1.0247e+01
2.4628e+00  1.0607e+01
2.5310e+00  1.6227e+01
2.5993e+00  5.3695e+01
2.6675e+00  1.0403e+01
2.7357e+00  9.6914e+00
2.8039e+00  9.4874e+00
2.8721e+00  9.3414e+00
2.9403e+00  9.2742e+00
3.0085e+00  9.1814e+00
3.0766e+00  9.1684e+00
3.1448e+00  9.1444e+00
3.2130e+00  9.1143e+00
3.2811e+00  9.1277e+00
3.3493e+00  9.1978e+00
3.4174e+00  9.2694e+00
3.4855e+00  9.6275e+00
3.5536e+00  1.0823e+01
3.6217e+00  2.2701e+02
3.6898e+00  1.5213e+01
3.7579e+00  9.8249e+00
3.8260e+00  9.0962e+00
3.8940e+00  8.7088e+00
3.9621e+00  8.5719e+00
4.0301e+00  8.4453e+00
4.0981e+00  8.4088e+00
4.1662e+00  8.4354e+00
4.2342e+00  8.4483e+00
4.3021e+00  8.5853e+00
4.3701e+00  9.0700e+00
4.4380e+00  8.5542e+01
4.5059e+00  1.1734e+01
4.5738e+00  8.6774e+00
4.6417e+00  8.3976e+00
4.7096e+00  8.2270e+00
4.7775e+00  8.1556e+00
4.8453e+00  8.1604e+00
4.9132e+00  8.1838e+00
4.9810e+00  8.2076e+00
5.0488e+00  8.4573e+00
5.1166e+00  1.7071e+01
5.1844e+00  1.3795e+01
5.2522e+00  8.4786e+00
5.3199e+00  8.3113e+00
5.3877e+00  8.2632e+00
5.4554e+00  8.2602e+00
5.5231e+00  8.2904e+00
5.5908e+00  8.5000e+00
5.6585e+00  8.9848e+00
5.7261e+00  3.5704e+01
5.7938e+00  2.0125e+01
5.8614e+00  8.9246e+00
5.9290e+00  8.3791e+00
5.9966e+00  8.2258e+00
6.0642e+00  8.1386e+00
6.1318e+00  8.1683e+00
6.1993e+00  8.4193e+00
6.2668e+00  1.2905e+01
6.3344e+00  2.9032e+01
6.4018e+00  8.3581e+00
6.4693e+00  8.1051e+00
6.5368e+00  7.9375e+00
6.6042e+00  7.8900e+00
6.6716e+00  7.8341e+00
6.7390e+00  7.8667e+00
6.8064e+00  7.8549e+00
6.8738e+00  7.8781e+00
6.9411e+00  7.8925e+00
7.0084e+00  7.8326e+00
7.0757e+00  7.9180e+00
7.1430e+00  7.9666e+00
7.2103e+00  8.1669e+00
7.2775e+00  7.0333e+01
7.3447e+00  8.4081e+00
7.4119e+00  8.1163e+00
7.4791e+00  8.1276e+00
7.5463e+00  8.1775e+00
7.6134e+00  8.5200e+00
7.6805e+00  1.1626e+01
7.7476e+00  6.3688e+01
7.8147e+00  8.6692e+00
7.8817e+00  8.3393e+00
7.9488e+00  8.2573e+00
8.0158e+00  8.3918e+00
8.0828e+00  9.0656e+00
8.1497e+00  1.5741e+02
8.2167e+00  8.7399e+00
8.2836e+00  8.3287e+00
8.3505e+00  8.1946e+00
8.4173e+00  8.2380e+00
8.4842e+00  8.7415e+00
8.5510e+00  8.6453e+01
8.6178e+00  8.3619e+00
8.6846e+00  8.0958e+00
8.7514e+00  7.9486e+00
8.8181e+00  8.0042e+00
8.8848e+00  8.5731e+00
8.9515e+00  9.8729e+00
9.0181e+00  8.0232e+00
9.0847e+00  7.9948e+00
9.1514e+00  8.0341e+00
9.2179e+00  8.1983e+00
9.2845e+00  6.1774e+01
9.3510e+00  8.3224e+00
9.4175e+00  8.1132e+00
9.4840e+00  8.1516e+00
9.5504e+00  8.4051e+00
9.6169e+00  4.0426e+01
9.6833e+00  1.0580e+01
9.7496e+00  8.2823e+00
9.8160e+00  8.0869e+00
9.8823e+00  8.1169e+00
9.9486e+00  8.0793e+00
1.0015e+01  8.0383e+00
1.0081e+01  8.1194e+00
1.0147e+01  8.1059e+00
1.0213e+01  8.1810e+00
1.0280e+01  1.1026e+01
1.0346e+01  8.8258e+00
1.0412e+01  8.2576e+00
1.0478e+01  8.3643e+00
1.0544e+01  8.5754e+00
1.0610e+01  5.7933e+01
1.0676e+01  9.2721e+00
1.0742e+01  8.4354e+00
1.0808e+01  8.4479e+00
1.0874e+01  8.8190e+00
1.0940e+01  7.4882e+01
1.1005e+01  8.5591e+00
1.1071e+01  8.3708e+00
1.1137e+01  8.3277e+00
1.1203e+01  1.1162e+01
1.1269e+01  9.8764e+00
1.1334e+01  8.2672e+00
1.1400e+01  8.3051e+00
1.1466e+01  8.4879e+00
1.1531e+01  4.2543e+01
1.1597e+01  8.3771e+00
1.1662e+01  8.3079e+00
1.1728e+01  8.5030e+00
1.1793e+01  3.7227e+01
1.1859e+01  9.5289e+00
1.1924e+01  8.4784e+00
1.1989e+01  8.3042e+00
1.2055e+01  1.0123e+01
1.2120e+01  1.2944e+01
1.2185e+01  8.2365e+00
1.2251e+01  8.1351e+00
1.2316e+01  8.1597e+00
1.2381e+01  8.1213e+00
1.2446e+01  8.1685e+00
1.2511e+01  8.1062e+00
1.2576e+01  8.3017e+00
1.2641e+01  2.2175e+01
1.2706e+01  8.2027e+00
1.2771e+01  8.1717e+00
1.2836e+01  8.3453e+00
1.2901e+01  2.3085e+01
1.2966e+01  8.3233e+00
1.3031e+01  8.3906e+00
1.3096e+01  9.0520e+00
1.3161e+01  5.9546e+01
1.3225e+01  8.5652e+00
1.3290e+01  8.3819e+00
1.3355e+01  8.9534e+00
1.3419e+01  2.3062e+01
1.3484e+01  8.3074e+00
1.3549e+01  8.2548e+00
1.3613e+01  8.2227e+00
1.3678e+01  8.2471e+00
1.3742e+01  8.2811e+00
1.3807e+01  8.3897e+00
1.3871e+01  2.8850e+01
1.3935e+01  9.2877e+00
1.4000e+01  8.3103e+00
1.4064e+01  8.3623e+00
1.4128e+01  2.3480e+01
1.4192e+01  8.2860e+00
1.4257e+01  8.2313e+00
1.4321e+01  8.1345e+00
1.4385e+01  8.1794e+00
1.4449e+01  8.1490e+00
1.4513e+01  8.2288e+00
1.4577e+01  1.1924e+01
1.4641e+01  8.4317e+00
1.4704e+01  8.3388e+00
1.4768e+01  8.7126e+00
1.4832e+01  3.4281e+01
1.4896e+01  8.5209e+00
1.4959e+01  8.5354e+00
1.5023e+01  1.7476e+01
1.5086e+01  9.8174e+00
1.5150e+01  8.4683e+00
1.5213e+01  8.6824e+00
1.5276e+01  2.7479e+01
1.5340e+01  8.4079e+00
1.5403e+01  8.3606e+00
1.5466e+01  1.3976e+01
1.5529e+01  8.6768e+00
1.5592e+01  8.2103e+00
1.5655e+01  8.4425e+00
1.5718e+01  1.2429e+01
1.5781e+01  8.2245e+00
1.5844e+01  8.2508e+00
1.5906e+01  2.4116e+01
1.5969e+01  8.3241e+00
1.6032e+01  8.0834e+00
1.6094e+01  8.0953e+00
1.6157e+01  8.0954e+00
1.6219e+01  8.0487e+00
1.6281e+01  8.3187e+00
1.6343e+01  1.3817e+01
1.6406e+01  8.1586e+00
1.6468e+01  8.3253e+00
1.6530e+01  3.0604e+01
1.6592e+01  8.3416e+00
1.6654e+01  8.0965e+00
1.6716e+01  1.3056e+01
1.6777e+01  8.4176e+00
1.6839e+01  7.9448e+00
1.6901e+01  8.7335e+00
1.6962e+01  9.2816e+00
1.7024e+01  7.9354e+00
1.7085e+01  8.0093e+00
1.7146e+01  1.0895e+01
1.7208e+01  8.0018e+00
1.7269e+01  8.1162e+00
1.7330e+01  2.2225e+01
1.7391e+01  7.9050e+00
1.7452e+01  7.9706e+00
1.7513e+01  1.6747e+01
1.7574e+01  7.8670e+00
1.7635e+01  7.7723e+00
1.7695e+01  7.6391e+00
1.7756e+01  7.6027e+00
1.7816e+01  7.4674e+00
1.7877e+01  8.2056e+00
1.7937e+01  7.6662e+00
1.7998e+01  7.6236e+00
1.8058e+01  1.0283e+01
1.8118e+01  9.0736e+00
1.8178e+01  7.6395e+00
1.8238e+01  1.0552e+01
1.8298e+01  1.1688e+01
1.8358e+01  7.6342e+00
1.8418e+01  9.1829e+00
1.8477e+01  1.0829e+01
1.8537e+01  7.6436e+00
1.8597e+01  8.2895e+00
1.8656e+01  9.3281e+00
1.8716e+01  0.0000e+00
1.8775e+01  0.0000e+00
1.8864e+01  0.0000e+00